#timestamp [ns],gyro_x,gyro_y,gyro_z,accel_x,accel_y,accel_z
1681712751372873984,0.0021305938716977835,-0.006391781847923994,0.0021305938716977835,0.05736890062689781,10.402894020080566,-0.28684452176094055
1681712751404811776,0.0021305938716977835,-0.009587672539055347,0.0021305938716977835,0.09561483561992645,10.364648818969727,-0.3059674799442291
1681712751436748544,0.004261187743395567,-0.009587672539055347,0.0053264847956597805,0.05736890062689781,10.422017097473145,-0.3059674799442291
1681712751468686336,0.003195890923961997,-0.010652969591319561,0.0,0.07649186998605728,10.383770942687988,-0.3059674799442291
1681712751500624896,0.003195890923961997,-0.010652969591319561,-0.004261187743395567,0.05736890062689781,10.383770942687988,-0.3250904381275177
1681712751500624896,0.003195890923961997,-0.010652969591319561,-0.004261187743395567,0.05736890062689781,10.383770942687988,-0.3250904381275177
1681712751532564480,0.003195890923961997,-0.007457078900188208,-0.0021305938716977835,0.07649186998605728,10.383770942687988,-0.3059674799442291
1681712751564500480,0.0053264847956597805,-0.007457078900188208,0.0,0.07649186998605728,10.402894020080566,-0.3059674799442291
1681712751564500480,0.004261187743395567,-0.004261187743395567,0.0010652969358488917,0.07649186998605728,10.402894020080566,-0.3059674799442291
1681712751596432896,0.0,-0.007457078900188208,0.0,0.07649186998605728,10.402894020080566,-0.28684452176094055
1681712751628370176,0.006391781847923994,-0.003195890923961997,-0.0010652969358488917,0.07649186998605728,10.364648818969727,-0.28684452176094055
1681712751628370176,0.006391781847923994,-0.003195890923961997,-0.0010652969358488917,0.07649186998605728,10.364648818969727,-0.28684452176094055
1681712751660307200,0.0010652969358488917,-0.007457078900188208,0.0021305938716977835,0.05736890062689781,10.402894020080566,-0.3059674799442291
1681712751708217344,0.004261187743395567,-0.004261187743395567,0.0021305938716977835,0.07649186998605728,10.402894020080566,-0.3059674799442291
1681712751724187648,0.0021305938716977835,-0.010652969591319561,0.0021305938716977835,0.05736890062689781,10.422017097473145,-0.3250904381275177
1681712751740158720,0.0021305938716977835,-0.010652969591319561,0.0021305938716977835,0.07649186998605728,10.422017097473145,-0.3059674799442291
1681712751772098048,0.003195890923961997,-0.011718266643583775,0.0010652969358488917,0.05736890062689781,10.364648818969727,-0.28684452176094055
1681712751804467968,0.004261187743395567,-0.007457078900188208,0.0010652969358488917,0.07649186998605728,10.402894020080566,-0.3059674799442291
1681712751836403712,0.0021305938716977835,-0.004261187743395567,0.0053264847956597805,0.05736890062689781,10.402894020080566,-0.28684452176094055
1681712751836403712,0.0021305938716977835,-0.004261187743395567,0.0053264847956597805,0.05736890062689781,10.402894020080566,-0.28684452176094055
1681712751868339200,0.003195890923961997,-0.009587672539055347,0.0021305938716977835,0.07649186998605728,10.383770942687988,-0.3059674799442291
1681712751900276992,0.007457078900188208,-0.0053264847956597805,0.0010652969358488917,0.07649186998605728,10.402894020080566,-0.3059674799442291
1681712751932213760,0.003195890923961997,-0.008522375486791134,0.003195890923961997,0.05736890062689781,10.383770942687988,-0.3059674799442291
1681712751932213760,0.003195890923961997,-0.008522375486791134,0.003195890923961997,0.05736890062689781,10.383770942687988,-0.3059674799442291
1681712751964155904,0.0021305938716977835,-0.006391781847923994,-0.0021305938716977835,0.05736890062689781,10.402894020080566,-0.28684452176094055
1681712751996096000,0.003195890923961997,-0.006391781847923994,0.0021305938716977835,0.07649186998605728,10.402894020080566,-0.3059674799442291
1681712752028039424,0.003195890923961997,-0.0053264847956597805,-0.0010652969358488917,0.09561483561992645,10.383770942687988,-0.3059674799442291
1681712752028039424,0.003195890923961997,-0.0053264847956597805,-0.0010652969358488917,0.09561483561992645,10.383770942687988,-0.3059674799442291
1681712752059979520,0.003195890923961997,-0.010652969591319561,0.0,0.07649186998605728,10.383770942687988,-0.3059674799442291
1681712752107891968,0.0010652969358488917,-0.007457078900188208,0.0021305938716977835,0.07649186998605728,10.383770942687988,-0.3059674799442291
1681712752139840768,0.0053264847956597805,-0.006391781847923994,0.0,0.07649186998605728,10.422017097473145,-0.3059674799442291
1681712752139840768,0.0053264847956597805,-0.006391781847923994,0.0,0.07649186998605728,10.422017097473145,-0.3059674799442291
1681712752171780864,0.003195890923961997,-0.007457078900188208,0.0010652969358488917,0.07649186998605728,10.383770942687988,-0.3059674799442291
1681712752203719680,0.004261187743395567,-0.0053264847956597805,0.0053264847956597805,0.05736890062689781,10.383770942687988,-0.3059674799442291
1681712752203719680,0.004261187743395567,-0.0053264847956597805,0.0053264847956597805,0.05736890062689781,10.383770942687988,-0.3059674799442291
1681712752235660800,0.0053264847956597805,-0.010652969591319561,0.0,0.05736890062689781,10.402894020080566,-0.3059674799442291
1681712752267603968,0.008522375486791134,-0.003195890923961997,0.003195890923961997,0.05736890062689781,10.383770942687988,-0.3059674799442291
1681712752267603968,0.003195890923961997,-0.008522375486791134,0.0010652969358488917,0.05736890062689781,10.383770942687988,-0.3059674799442291
1681712752299851264,0.006391781847923994,-0.0021305938716977835,0.003195890923961997,0.07649186998605728,10.402894020080566,-0.3059674799442291
1681712752331795968,0.0053264847956597805,-0.006391781847923994,0.0010652969358488917,0.07649186998605728,10.402894020080566,-0.3059674799442291
1681712752331795968,0.0021305938716977835,-0.010652969591319561,0.003195890923961997,0.07649186998605728,10.402894020080566,-0.3059674799442291
1681712752363738368,0.004261187743395567,-0.007457078900188208,0.0,0.05736890062689781,10.402894020080566,-0.3250904381275177
1681712752395680256,0.003195890923961997,-0.0053264847956597805,0.0010652969358488917,0.07649186998605728,10.383770942687988,-0.3250904381275177
1681712752395680256,0.003195890923961997,-0.0053264847956597805,0.0010652969358488917,0.07649186998605728,10.383770942687988,-0.3250904381275177
1681712752427614720,0.004261187743395567,-0.004261187743395567,0.0,0.05736890062689781,10.402894020080566,-0.3250904381275177
1681712752459553536,0.0053264847956597805,-0.007457078900188208,0.004261187743395567,0.07649186998605728,10.402894020080566,-0.3059674799442291
1681712752475522816,0.004261187743395567,-0.004261187743395567,-0.004261187743395567,0.07649186998605728,10.402894020080566,-0.28684452176094055
1681712752507460864,0.0010652969358488917,-0.0053264847956597805,0.0,0.07649186998605728,10.383770942687988,-0.3059674799442291
1681712752539395328,0.0021305938716977835,-0.010652969591319561,0.0010652969358488917,0.07649186998605728,10.422017097473145,-0.3250904381275177
1681712752571325952,0.0053264847956597805,-0.011718266643583775,-0.0010652969358488917,0.07649186998605728,10.383770942687988,-0.3059674799442291
1681712752571325952,0.0053264847956597805,-0.011718266643583775,-0.0010652969358488917,0.07649186998605728,10.383770942687988,-0.3059674799442291
1681712752603263488,0.003195890923961997,-0.009587672539055347,0.0021305938716977835,0.05736890062689781,10.402894020080566,-0.3059674799442291
1681712752635204864,0.0010652969358488917,-0.007457078900188208,0.0010652969358488917,0.07649186998605728,10.402894020080566,-0.28684452176094055
1681712752635204864,0.0,-0.009587672539055347,0.0021305938716977835,0.07649186998605728,10.402894020080566,-0.28684452176094055
1681712752667144192,0.0021305938716977835,-0.007457078900188208,0.0,0.07649186998605728,10.383770942687988,-0.3059674799442291
1681712752699080960,0.003195890923961997,-0.009587672539055347,0.0010652969358488917,0.07649186998605728,10.402894020080566,-0.3250904381275177
1681712752699080960,0.003195890923961997,-0.009587672539055347,0.0010652969358488917,0.07649186998605728,10.402894020080566,-0.3250904381275177
1681712752731015680,0.003195890923961997,-0.007457078900188208,0.0,0.05736890062689781,10.422017097473145,-0.3059674799442291
1681712752762950912,0.0053264847956597805,-0.006391781847923994,0.003195890923961997,0.07649186998605728,10.383770942687988,-0.3059674799442291
1681712752795128576,0.003195890923961997,-0.0053264847956597805,0.0010652969358488917,0.07649186998605728,10.402894020080566,-0.3059674799442291
1681712752795128576,0.003195890923961997,-0.0053264847956597805,0.0010652969358488917,0.07649186998605728,10.402894020080566,-0.3059674799442291
1681712752827070976,0.0053264847956597805,-0.004261187743395567,-0.0021305938716977835,0.07649186998605728,10.402894020080566,-0.3059674799442291
1681712752859011840,0.003195890923961997,-0.006391781847923994,0.0,0.07649186998605728,10.402894020080566,-0.3059674799442291
1681712752874980352,0.003195890923961997,-0.006391781847923994,0.0,0.07649186998605728,10.402894020080566,-0.3059674799442291
1681712752906919680,0.0053264847956597805,-0.008522375486791134,0.0021305938716977835,0.07649186998605728,10.402894020080566,-0.3059674799442291
1681712752938856704,0.006391781847923994,-0.006391781847923994,0.003195890923961997,0.07649186998605728,10.383770942687988,-0.28684452176094055
1681712752938856704,0.0010652969358488917,-0.0053264847956597805,0.0021305938716977835,0.07649186998605728,10.383770942687988,-0.28684452176094055
1681712752970796288,0.004261187743395567,-0.0053264847956597805,0.0010652969358488917,0.07649186998605728,10.402894020080566,-0.3059674799442291
1681712753002737664,0.004261187743395567,-0.006391781847923994,-0.0010652969358488917,0.07649186998605728,10.345525741577148,-0.267721563577652
1681712753002737664,0.004261187743395567,-0.006391781847923994,-0.0010652969358488917,0.07649186998605728,10.345525741577148,-0.267721563577652
1681712753034676224,0.003195890923961997,-0.0053264847956597805,0.006391781847923994,0.05736890062689781,10.441140174865723,-0.3059674799442291
1681712753066614272,0.0053264847956597805,-0.009587672539055347,0.0010652969358488917,0.09561483561992645,10.32640266418457,-0.3059674799442291
1681712753098554880,0.006391781847923994,-0.0053264847956597805,0.0010652969358488917,0.05736890062689781,10.402894020080566,-0.3059674799442291
1681712753098554880,0.006391781847923994,-0.0053264847956597805,0.0010652969358488917,0.05736890062689781,10.402894020080566,-0.3059674799442291
1681712753130493184,0.003195890923961997,-0.008522375486791134,0.006391781847923994,0.05736890062689781,10.460262298583984,-0.3059674799442291
1681712753162429952,0.0021305938716977835,-0.010652969591319561,0.0021305938716977835,0.07649186998605728,10.32640266418457,-0.28684452176094055
1681712753162429952,0.0021305938716977835,-0.010652969591319561,0.0021305938716977835,0.07649186998605728,10.32640266418457,-0.28684452176094055
1681712753194368000,0.0010652969358488917,-0.008522375486791134,0.004261187743395567,0.05736890062689781,10.441140174865723,-0.3059674799442291
1681712753226307328,0.0053264847956597805,-0.0010652969358488917,0.003195890923961997,0.07649186998605728,10.402894020080566,-0.28684452176094055
1681712753242278144,0.003195890923961997,-0.006391781847923994,0.004261187743395567,0.07649186998605728,10.364648818969727,-0.3059674799442291
1681712753274219264,0.0053264847956597805,-0.009587672539055347,0.0,0.07649186998605728,10.402894020080566,-0.3059674799442291
1681712753306430464,0.0021305938716977835,-0.009587672539055347,0.003195890923961997,0.07649186998605728,10.402894020080566,-0.3059674799442291
1681712753306430464,0.0021305938716977835,-0.009587672539055347,0.003195890923961997,0.07649186998605728,10.402894020080566,-0.3059674799442291
1681712753338371072,0.0,-0.006391781847923994,0.0021305938716977835,0.09561483561992645,10.383770942687988,-0.28684452176094055
1681712753370308864,0.0,-0.006391781847923994,0.0021305938716977835,0.07649186998605728,10.402894020080566,-0.3059674799442291
1681712753370308864,0.0,-0.006391781847923994,0.0021305938716977835,0.07649186998605728,10.402894020080566,-0.3059674799442291
1681712753402242560,0.0053264847956597805,-0.004261187743395567,-0.0010652969358488917,0.05736890062689781,10.402894020080566,-0.3059674799442291
1681712753434179840,0.0021305938716977835,-0.006391781847923994,0.003195890923961997,0.05736890062689781,10.383770942687988,-0.28684452176094055
1681712753434179840,0.0021305938716977835,-0.006391781847923994,0.003195890923961997,0.05736890062689781,10.383770942687988,-0.28684452176094055
1681712753466124032,0.004261187743395567,-0.007457078900188208,0.004261187743395567,0.05736890062689781,10.422017097473145,-0.3059674799442291
1681712753498064640,0.0021305938716977835,-0.009587672539055347,0.0021305938716977835,0.07649186998605728,10.402894020080566,-0.3250904381275177
1681712753530004736,0.004261187743395567,-0.012783563695847988,0.0,0.07649186998605728,10.402894020080566,-0.3059674799442291
1681712753530004736,0.004261187743395567,-0.012783563695847988,0.0,0.07649186998605728,10.402894020080566,-0.3059674799442291
1681712753561944320,0.0053264847956597805,-0.008522375486791134,-0.0021305938716977835,0.07649186998605728,10.422017097473145,-0.3059674799442291
1681712753593886720,0.0010652969358488917,-0.003195890923961997,0.0021305938716977835,0.05736890062689781,10.402894020080566,-0.28684452176094055
1681712753593886720,0.004261187743395567,-0.008522375486791134,0.0010652969358488917,0.05736890062689781,10.402894020080566,-0.28684452176094055
1681712753641802240,-0.0010652969358488917,-0.0021305938716977835,-0.0010652969358488917,0.07649186998605728,10.402894020080566,-0.3059674799442291
1681712753673741568,0.003195890923961997,-0.008522375486791134,0.0010652969358488917,0.07649186998605728,10.422017097473145,-0.3250904381275177
1681712753673741568,0.003195890923961997,-0.008522375486791134,0.0010652969358488917,0.07649186998605728,10.422017097473145,-0.3250904381275177
1681712753705680896,0.007457078900188208,-0.009587672539055347,0.0021305938716977835,0.07649186998605728,10.402894020080566,-0.3059674799442291
1681712753737622784,0.0010652969358488917,-0.006391781847923994,0.0010652969358488917,0.07649186998605728,10.383770942687988,-0.3250904381275177
1681712753737622784,0.0010652969358488917,-0.006391781847923994,0.0010652969358488917,0.07649186998605728,10.383770942687988,-0.3250904381275177
1681712753769566720,0.0021305938716977835,-0.006391781847923994,0.0,0.05736890062689781,10.383770942687988,-0.28684452176094055
1681712753801708800,0.0010652969358488917,-0.008522375486791134,0.003195890923961997,0.07649186998605728,10.383770942687988,-0.28684452176094055
1681712753801708800,0.003195890923961997,-0.012783563695847988,-0.0010652969358488917,0.07649186998605728,10.383770942687988,-0.28684452176094055
1681712753833647872,0.006391781847923994,-0.003195890923961997,0.0010652969358488917,0.07649186998605728,10.383770942687988,-0.3059674799442291
1681712753865587200,0.0021305938716977835,-0.008522375486791134,0.0010652969358488917,0.05736890062689781,10.402894020080566,-0.3250904381275177
1681712753865587200,0.0021305938716977835,-0.008522375486791134,0.0010652969358488917,0.05736890062689781,10.402894020080566,-0.3250904381275177
1681712753897528320,-0.0010652969358488917,-0.008522375486791134,0.0021305938716977835,0.07649186998605728,10.422017097473145,-0.3059674799442291
1681712753929464320,0.004261187743395567,-0.006391781847923994,-0.0010652969358488917,0.07649186998605728,10.402894020080566,-0.3059674799442291
1681712753929464320,0.004261187743395567,-0.006391781847923994,-0.0010652969358488917,0.07649186998605728,10.402894020080566,-0.3059674799442291
1681712753961399296,0.0010652969358488917,-0.006391781847923994,0.0021305938716977835,0.05736890062689781,10.383770942687988,-0.28684452176094055
1681712753993339904,0.006391781847923994,-0.010652969591319561,-0.004261187743395567,0.07649186998605728,10.402894020080566,-0.3059674799442291
1681712754009308160,0.004261187743395567,-0.004261187743395567,-0.0010652969358488917,0.07649186998605728,10.422017097473145,-0.3059674799442291
1681712754041242368,0.0053264847956597805,-0.008522375486791134,0.0,0.03824593499302864,10.383770942687988,-0.3059674799442291
1681712754073177344,0.003195890923961997,0.0,0.0010652969358488917,0.07649186998605728,10.402894020080566,-0.3059674799442291
1681712754073177344,0.003195890923961997,0.0,0.0010652969358488917,0.07649186998605728,10.402894020080566,-0.3059674799442291
1681712754105114368,0.0053264847956597805,-0.008522375486791134,-0.0010652969358488917,0.05736890062689781,10.402894020080566,-0.3059674799442291
1681712754137049600,0.004261187743395567,-0.007457078900188208,-0.0021305938716977835,0.07649186998605728,10.402894020080566,-0.3059674799442291
1681712754137049600,0.004261187743395567,-0.007457078900188208,-0.0021305938716977835,0.07649186998605728,10.402894020080566,-0.3059674799442291
1681712754168985856,0.0053264847956597805,-0.003195890923961997,0.0,0.07649186998605728,10.402894020080566,-0.28684452176094055
1681712754200920576,0.0021305938716977835,-0.0053264847956597805,0.0,0.05736890062689781,10.402894020080566,-0.3059674799442291
1681712754200920576,0.004261187743395567,-0.007457078900188208,0.0010652969358488917,0.05736890062689781,10.402894020080566,-0.3059674799442291
1681712754232860672,0.0021305938716977835,-0.0053264847956597805,0.004261187743395567,0.05736890062689781,10.402894020080566,-0.3250904381275177
1681712754264795648,0.004261187743395567,-0.006391781847923994,0.0010652969358488917,0.07649186998605728,10.402894020080566,-0.3250904381275177
1681712754264795648,0.007457078900188208,-0.008522375486791134,0.0010652969358488917,0.07649186998605728,10.402894020080566,-0.3250904381275177
1681712754296980224,0.0021305938716977835,-0.003195890923961997,-0.0021305938716977835,0.05736890062689781,10.402894020080566,-0.3059674799442291
1681712754328914176,0.0010652969358488917,-0.0053264847956597805,0.0021305938716977835,0.07649186998605728,10.383770942687988,-0.28684452176094055
1681712754328914176,0.0010652969358488917,-0.0053264847956597805,0.0021305938716977835,0.07649186998605728,10.383770942687988,-0.28684452176094055
1681712754360849920,0.003195890923961997,-0.006391781847923994,0.004261187743395567,0.05736890062689781,10.402894020080566,-0.3059674799442291
1681712754392786944,0.004261187743395567,-0.007457078900188208,0.0021305938716977835,0.07649186998605728,10.422017097473145,-0.3250904381275177
1681712754408757760,0.004261187743395567,-0.007457078900188208,0.0021305938716977835,0.09561483561992645,10.402894020080566,-0.3059674799442291
1681712754440697344,0.003195890923961997,-0.010652969591319561,0.0021305938716977835,0.05736890062689781,10.383770942687988,-0.3059674799442291
1681712754472634880,0.003195890923961997,-0.007457078900188208,0.0053264847956597805,0.05736890062689781,10.422017097473145,-0.3059674799442291
1681712754472634880,0.003195890923961997,-0.004261187743395567,0.0010652969358488917,0.05736890062689781,10.422017097473145,-0.3059674799442291
1681712754504573184,0.0021305938716977835,-0.007457078900188208,0.004261187743395567,0.07649186998605728,10.402894020080566,-0.28684452176094055
1681712754536510208,0.003195890923961997,-0.0053264847956597805,0.0010652969358488917,0.05736890062689781,10.383770942687988,-0.3059674799442291
1681712754568445696,0.006391781847923994,-0.0021305938716977835,-0.0010652969358488917,0.05736890062689781,10.402894020080566,-0.3059674799442291
1681712754568445696,0.004261187743395567,-0.008522375486791134,0.004261187743395567,0.05736890062689781,10.402894020080566,-0.3059674799442291
1681712754600381696,0.0,-0.0053264847956597805,0.0010652969358488917,0.05736890062689781,10.402894020080566,-0.3059674799442291
1681712754632312320,0.0,-0.007457078900188208,0.003195890923961997,0.07649186998605728,10.422017097473145,-0.3059674799442291
1681712754632312320,0.0,-0.007457078900188208,0.003195890923961997,0.07649186998605728,10.422017097473145,-0.3059674799442291
1681712754664248064,0.0010652969358488917,-0.007457078900188208,-0.0010652969358488917,0.05736890062689781,10.402894020080566,-0.3059674799442291
1681712754696184064,0.0053264847956597805,-0.004261187743395567,-0.0010652969358488917,0.07649186998605728,10.383770942687988,-0.28684452176094055
1681712754696184064,0.0053264847956597805,-0.004261187743395567,-0.0010652969358488917,0.07649186998605728,10.383770942687988,-0.28684452176094055
1681712754728122624,0.003195890923961997,-0.009587672539055347,0.006391781847923994,0.05736890062689781,10.422017097473145,-0.3059674799442291
1681712754760058624,0.003195890923961997,-0.007457078900188208,0.0,0.07649186998605728,10.364648818969727,-0.3059674799442291
1681712754776025344,0.0010652969358488917,-0.006391781847923994,0.0010652969358488917,0.07649186998605728,10.402894020080566,-0.3059674799442291
1681712754808187392,0.0010652969358488917,-0.010652969591319561,0.003195890923961997,0.05736890062689781,10.402894020080566,-0.3059674799442291
1681712754840125440,0.003195890923961997,-0.007457078900188208,0.003195890923961997,0.05736890062689781,10.383770942687988,-0.3059674799442291
1681712754840125440,0.003195890923961997,-0.007457078900188208,0.003195890923961997,0.05736890062689781,10.383770942687988,-0.3059674799442291
1681712754872065280,0.0010652969358488917,-0.006391781847923994,0.0010652969358488917,0.05736890062689781,10.402894020080566,-0.3059674799442291
1681712754904003072,0.004261187743395567,-0.0053264847956597805,0.0010652969358488917,0.07649186998605728,10.422017097473145,-0.3059674799442291
1681712754904003072,0.004261187743395567,-0.0053264847956597805,0.0010652969358488917,0.07649186998605728,10.422017097473145,-0.3059674799442291
1681712754935945984,0.0021305938716977835,-0.007457078900188208,-0.0010652969358488917,0.07649186998605728,10.383770942687988,-0.3059674799442291
1681712754967889408,0.003195890923961997,-0.004261187743395567,0.0010652969358488917,0.07649186998605728,10.422017097473145,-0.28684452176094055
1681712754967889408,0.0010652969358488917,-0.009587672539055347,0.004261187743395567,0.07649186998605728,10.422017097473145,-0.28684452176094055
1681712754999830272,0.006391781847923994,-0.007457078900188208,0.0010652969358488917,0.05736890062689781,10.383770942687988,-0.3059674799442291
1681712755031767040,0.0021305938716977835,-0.009587672539055347,0.0,0.05736890062689781,10.422017097473145,-0.3059674799442291
1681712755031767040,0.0021305938716977835,-0.009587672539055347,0.0,0.05736890062689781,10.422017097473145,-0.3059674799442291
1681712755063703296,0.0,-0.008522375486791134,0.0010652969358488917,0.05736890062689781,10.402894020080566,-0.3059674799442291
1681712755095643392,0.004261187743395567,-0.009587672539055347,0.003195890923961997,0.07649186998605728,10.383770942687988,-0.3059674799442291
1681712755095643392,0.004261187743395567,-0.009587672539055347,0.003195890923961997,0.07649186998605728,10.383770942687988,-0.3059674799442291
1681712755127586560,0.0021305938716977835,-0.006391781847923994,0.0021305938716977835,0.07649186998605728,10.422017097473145,-0.28684452176094055
1681712755159536896,0.0021305938716977835,-0.006391781847923994,0.0010652969358488917,0.07649186998605728,10.402894020080566,-0.3059674799442291
1681712755175508480,0.003195890923961997,-0.007457078900188208,-0.0010652969358488917,0.05736890062689781,10.383770942687988,-0.3059674799442291
1681712755207453696,0.0010652969358488917,-0.0053264847956597805,0.004261187743395567,0.05736890062689781,10.383770942687988,-0.28684452176094055
1681712755239401216,0.003195890923961997,-0.006391781847923994,0.003195890923961997,0.07649186998605728,10.422017097473145,-0.3250904381275177
1681712755239401216,0.008522375486791134,0.0,0.0010652969358488917,0.07649186998605728,10.422017097473145,-0.3250904381275177
1681712755271346176,0.004261187743395567,-0.007457078900188208,-0.0010652969358488917,0.07649186998605728,10.383770942687988,-0.3059674799442291
1681712755303499264,0.006391781847923994,-0.004261187743395567,0.004261187743395567,0.05736890062689781,10.402894020080566,-0.3059674799442291
1681712755303499264,0.006391781847923994,-0.004261187743395567,0.004261187743395567,0.05736890062689781,10.402894020080566,-0.3059674799442291
1681712755335438336,0.0021305938716977835,-0.009587672539055347,0.0010652969358488917,0.07649186998605728,10.402894020080566,-0.28684452176094055
1681712755367376896,0.0021305938716977835,-0.006391781847923994,0.003195890923961997,0.05736890062689781,10.383770942687988,-0.3059674799442291
1681712755367376896,0.0021305938716977835,-0.006391781847923994,0.003195890923961997,0.05736890062689781,10.383770942687988,-0.3059674799442291
1681712755399316480,0.004261187743395567,-0.008522375486791134,0.0021305938716977835,0.05736890062689781,10.422017097473145,-0.3059674799442291
1681712755431255552,0.003195890923961997,-0.006391781847923994,0.004261187743395567,0.07649186998605728,10.383770942687988,-0.3250904381275177
1681712755463195648,0.0053264847956597805,-0.0053264847956597805,0.0,0.05736890062689781,10.402894020080566,-0.28684452176094055
1681712755463195648,0.0053264847956597805,-0.0053264847956597805,0.0,0.05736890062689781,10.402894020080566,-0.28684452176094055
1681712755495133440,0.004261187743395567,-0.010652969591319561,0.0053264847956597805,0.05736890062689781,10.402894020080566,-0.3059674799442291
1681712755527070976,0.003195890923961997,-0.003195890923961997,0.0010652969358488917,0.05736890062689781,10.383770942687988,-0.3059674799442291
1681712755543039232,0.004261187743395567,-0.010652969591319561,0.0010652969358488917,0.07649186998605728,10.402894020080566,-0.3059674799442291
1681712755574975744,0.0,-0.008522375486791134,0.0021305938716977835,0.07649186998605728,10.422017097473145,-0.3059674799442291
1681712755606912768,0.0010652969358488917,-0.011718266643583775,-0.0010652969358488917,0.07649186998605728,10.383770942687988,-0.3250904381275177
1681712755606912768,0.0010652969358488917,-0.011718266643583775,-0.0010652969358488917,0.07649186998605728,10.383770942687988,-0.3250904381275177
1681712755638846720,0.0053264847956597805,-0.0053264847956597805,-0.003195890923961997,0.05736890062689781,10.422017097473145,-0.28684452176094055
1681712755670782720,0.0021305938716977835,-0.006391781847923994,0.0021305938716977835,0.07649186998605728,10.402894020080566,-0.3250904381275177
1681712755670782720,0.0021305938716977835,-0.006391781847923994,0.0021305938716977835,0.07649186998605728,10.402894020080566,-0.3250904381275177
1681712755702726144,-0.0010652969358488917,-0.006391781847923994,-0.0010652969358488917,0.07649186998605728,10.402894020080566,-0.3059674799442291
1681712755734675456,0.003195890923961997,-0.0053264847956597805,0.0010652969358488917,0.05736890062689781,10.402894020080566,-0.3059674799442291
1681712755734675456,0.003195890923961997,-0.006391781847923994,0.0,0.05736890062689781,10.402894020080566,-0.3059674799442291
1681712755766622976,0.004261187743395567,-0.004261187743395567,0.0010652969358488917,0.07649186998605728,10.402894020080566,-0.3059674799442291
1681712755798794496,0.0010652969358488917,-0.008522375486791134,0.0021305938716977835,0.07649186998605728,10.402894020080566,-0.3059674799442291
1681712755798794496,0.0010652969358488917,-0.008522375486791134,0.0021305938716977835,0.07649186998605728,10.402894020080566,-0.3059674799442291
1681712755830733312,0.0021305938716977835,-0.006391781847923994,0.0021305938716977835,0.07649186998605728,10.383770942687988,-0.3059674799442291
1681712755862677504,0.0053264847956597805,-0.008522375486791134,0.004261187743395567,0.05736890062689781,10.402894020080566,-0.3059674799442291
1681712755862677504,0.0053264847956597805,-0.008522375486791134,0.004261187743395567,0.05736890062689781,10.402894020080566,-0.3059674799442291
1681712755910594304,0.003195890923961997,-0.004261187743395567,0.0,0.05736890062689781,10.402894020080566,-0.3059674799442291
1681712755942536192,0.0021305938716977835,-0.004261187743395567,0.0010652969358488917,0.07649186998605728,10.402894020080566,-0.3059674799442291
1681712755974479104,0.0053264847956597805,-0.0053264847956597805,0.0,0.05736890062689781,10.402894020080566,-0.3059674799442291
1681712755974479104,0.0053264847956597805,-0.0053264847956597805,0.0,0.05736890062689781,10.402894020080566,-0.3059674799442291
1681712756006421248,0.0053264847956597805,-0.008522375486791134,0.0021305938716977835,0.07649186998605728,10.402894020080566,-0.3059674799442291
1681712756038361856,0.006391781847923994,-0.0053264847956597805,-0.0010652969358488917,0.07649186998605728,10.383770942687988,-0.3059674799442291
1681712756070305024,0.003195890923961997,-0.007457078900188208,0.0010652969358488917,0.07649186998605728,10.402894020080566,-0.3059674799442291
1681712756070305024,0.003195890923961997,-0.007457078900188208,0.0010652969358488917,0.07649186998605728,10.402894020080566,-0.3059674799442291
1681712756102242048,0.0021305938716977835,-0.006391781847923994,0.0,0.07649186998605728,10.402894020080566,-0.3059674799442291
1681712756134180608,0.0021305938716977835,-0.0053264847956597805,0.0053264847956597805,0.07649186998605728,10.383770942687988,-0.3059674799442291
1681712756134180608,0.0053264847956597805,-0.004261187743395567,0.0010652969358488917,0.07649186998605728,10.383770942687988,-0.3059674799442291
1681712756166120192,0.004261187743395567,-0.007457078900188208,0.0,0.07649186998605728,10.402894020080566,-0.3059674799442291
1681712756198060800,0.0010652969358488917,-0.004261187743395567,0.0010652969358488917,0.05736890062689781,10.402894020080566,-0.3250904381275177
1681712756198060800,0.0010652969358488917,-0.007457078900188208,0.0010652969358488917,0.05736890062689781,10.402894020080566,-0.3250904381275177
1681712756230001920,0.0010652969358488917,-0.009587672539055347,0.0,0.07649186998605728,10.402894020080566,-0.3059674799442291
1681712756261939712,0.0053264847956597805,-0.007457078900188208,0.004261187743395567,0.07649186998605728,10.422017097473145,-0.3059674799442291
1681712756261939712,0.0053264847956597805,-0.007457078900188208,0.004261187743395567,0.07649186998605728,10.422017097473145,-0.3059674799442291
1681712756310064640,0.0053264847956597805,-0.006391781847923994,-0.0010652969358488917,0.05736890062689781,10.402894020080566,-0.3059674799442291
1681712756341999872,0.0053264847956597805,-0.008522375486791134,0.0010652969358488917,0.05736890062689781,10.402894020080566,-0.3059674799442291
1681712756341999872,0.0053264847956597805,-0.008522375486791134,0.0010652969358488917,0.05736890062689781,10.402894020080566,-0.3059674799442291
1681712756373931776,0.0021305938716977835,-0.006391781847923994,0.003195890923961997,0.07649186998605728,10.402894020080566,-0.28684452176094055
1681712756405865216,0.0021305938716977835,-0.004261187743395567,0.0010652969358488917,0.07649186998605728,10.383770942687988,-0.28684452176094055
1681712756405865216,0.004261187743395567,-0.007457078900188208,-0.0010652969358488917,0.07649186998605728,10.383770942687988,-0.28684452176094055
1681712756437804544,-0.0010652969358488917,-0.006391781847923994,0.0021305938716977835,0.05736890062689781,10.402894020080566,-0.28684452176094055
1681712756469743104,0.0021305938716977835,-0.007457078900188208,0.0010652969358488917,0.07649186998605728,10.402894020080566,-0.3059674799442291
1681712756469743104,0.0021305938716977835,-0.007457078900188208,0.0010652969358488917,0.07649186998605728,10.402894020080566,-0.3059674799442291
1681712756501683200,0.004261187743395567,-0.004261187743395567,-0.0010652969358488917,0.05736890062689781,10.383770942687988,-0.28684452176094055
1681712756533621504,0.004261187743395567,-0.007457078900188208,0.003195890923961997,0.05736890062689781,10.383770942687988,-0.3059674799442291
1681712756533621504,0.004261187743395567,-0.007457078900188208,0.003195890923961997,0.05736890062689781,10.383770942687988,-0.3059674799442291
1681712756565558784,0.004261187743395567,-0.0021305938716977835,0.0021305938716977835,0.07649186998605728,10.402894020080566,-0.28684452176094055
1681712756597497088,0.0010652969358488917,-0.010652969591319561,0.0021305938716977835,0.07649186998605728,10.402894020080566,-0.3059674799442291
1681712756597497088,0.006391781847923994,-0.0053264847956597805,-0.0021305938716977835,0.07649186998605728,10.402894020080566,-0.3059674799442291
1681712756629435136,0.003195890923961997,-0.008522375486791134,0.0010652969358488917,0.07649186998605728,10.441140174865723,-0.3442133963108063
1681712756677337600,-0.0010652969358488917,-0.009587672539055347,-0.003195890923961997,0.05736890062689781,10.383770942687988,-0.3059674799442291
1681712756693304320,0.0053264847956597805,-0.006391781847923994,0.0,0.05736890062689781,10.345525741577148,-0.28684452176094055
1681712756709274112,0.004261187743395567,-0.008522375486791134,0.0021305938716977835,0.05736890062689781,10.364648818969727,-0.267721563577652
1681712756741214720,0.0021305938716977835,-0.006391781847923994,0.003195890923961997,0.05736890062689781,10.460262298583984,-0.28684452176094055
1681712756773153024,0.0021305938716977835,-0.0053264847956597805,0.003195890923961997,0.07649186998605728,10.383770942687988,-0.3059674799442291
1681712756805384960,0.004261187743395567,-0.010652969591319561,-0.0010652969358488917,0.09561483561992645,10.383770942687988,-0.3059674799442291
1681712756805384960,0.004261187743395567,-0.009587672539055347,0.0,0.09561483561992645,10.383770942687988,-0.3059674799442291
1681712756837327104,0.003195890923961997,-0.006391781847923994,0.0021305938716977835,0.03824593499302864,10.422017097473145,-0.3250904381275177
1681712756869265664,0.0021305938716977835,-0.009587672539055347,0.0,0.03824593499302864,10.383770942687988,-0.28684452176094055
1681712756869265664,0.0021305938716977835,-0.009587672539055347,0.0,0.03824593499302864,10.383770942687988,-0.28684452176094055
1681712756901204480,0.003195890923961997,-0.0053264847956597805,0.0010652969358488917,0.07649186998605728,10.402894020080566,-0.3059674799442291
1681712756933144320,0.0021305938716977835,-0.0053264847956597805,0.003195890923961997,0.07649186998605728,10.402894020080566,-0.28684452176094055
1681712756933144320,0.0021305938716977835,-0.0053264847956597805,0.003195890923961997,0.07649186998605728,10.402894020080566,-0.28684452176094055
1681712756965081344,0.0010652969358488917,-0.011718266643583775,0.0,0.07649186998605728,10.402894020080566,-0.3059674799442291
1681712756997022464,0.006391781847923994,-0.006391781847923994,0.0,0.07649186998605728,10.402894020080566,-0.3059674799442291
1681712756997022464,0.006391781847923994,-0.006391781847923994,0.0,0.07649186998605728,10.402894020080566,-0.3059674799442291
1681712757028961536,0.004261187743395567,-0.008522375486791134,0.003195890923961997,0.03824593499302864,10.422017097473145,-0.3250904381275177
1681712757060904704,0.0053264847956597805,-0.0053264847956597805,-0.0010652969358488917,0.07649186998605728,10.402894020080566,-0.3059674799442291
1681712757076876544,0.0021305938716977835,-0.006391781847923994,0.0010652969358488917,0.07649186998605728,10.422017097473145,-0.3059674799442291
1681712757108817152,0.0021305938716977835,-0.003195890923961997,-0.0021305938716977835,0.07649186998605728,10.402894020080566,-0.3059674799442291
1681712757140752384,0.004261187743395567,-0.004261187743395567,-0.0010652969358488917,0.05736890062689781,10.402894020080566,-0.3059674799442291
1681712757140752384,0.004261187743395567,-0.004261187743395567,-0.0010652969358488917,0.05736890062689781,10.402894020080566,-0.3059674799442291
1681712757172688384,0.0053264847956597805,-0.0053264847956597805,0.0,0.05736890062689781,10.402894020080566,-0.3059674799442291
1681712757204623360,0.0053264847956597805,-0.008522375486791134,-0.0021305938716977835,0.07649186998605728,10.402894020080566,-0.3250904381275177
1681712757236562432,0.0021305938716977835,-0.006391781847923994,0.003195890923961997,0.07649186998605728,10.422017097473145,-0.3059674799442291
1681712757236562432,0.0021305938716977835,-0.006391781847923994,0.003195890923961997,0.07649186998605728,10.422017097473145,-0.3059674799442291
1681712757268500224,0.004261187743395567,-0.008522375486791134,0.0021305938716977835,0.07649186998605728,10.402894020080566,-0.28684452176094055
1681712757300653824,0.004261187743395567,-0.006391781847923994,-0.0010652969358488917,0.05736890062689781,10.402894020080566,-0.28684452176094055
1681712757332596480,0.0021305938716977835,-0.007457078900188208,-0.0010652969358488917,0.05736890062689781,10.422017097473145,-0.3059674799442291
1681712757332596480,0.0021305938716977835,-0.007457078900188208,-0.0010652969358488917,0.05736890062689781,10.422017097473145,-0.3059674799442291
1681712757364535808,0.0021305938716977835,-0.007457078900188208,-0.0010652969358488917,0.05736890062689781,10.402894020080566,-0.3059674799442291
1681712757396474368,0.004261187743395567,-0.0053264847956597805,0.0010652969358488917,0.07649186998605728,10.402894020080566,-0.3059674799442291
1681712757396474368,0.004261187743395567,-0.0053264847956597805,0.0010652969358488917,0.07649186998605728,10.402894020080566,-0.3059674799442291
1681712757444380672,0.0,-0.008522375486791134,0.0,0.05736890062689781,10.402894020080566,-0.3250904381275177
1681712757460349440,0.0021305938716977835,-0.006391781847923994,-0.0021305938716977835,0.07649186998605728,10.402894020080566,-0.3059674799442291
1681712757476318720,0.004261187743395567,-0.003195890923961997,0.0053264847956597805,0.07649186998605728,10.402894020080566,-0.3059674799442291
1681712757508253440,0.004261187743395567,-0.006391781847923994,0.003195890923961997,0.05736890062689781,10.402894020080566,-0.3250904381275177
1681712757540186624,0.004261187743395567,-0.004261187743395567,0.0010652969358488917,0.07649186998605728,10.383770942687988,-0.3059674799442291
1681712757540186624,0.004261187743395567,-0.004261187743395567,0.0010652969358488917,0.07649186998605728,10.383770942687988,-0.3059674799442291
1681712757572118784,0.0053264847956597805,-0.0021305938716977835,0.0,0.05736890062689781,10.402894020080566,-0.3059674799442291
1681712757604055040,0.004261187743395567,-0.0053264847956597805,0.0010652969358488917,0.05736890062689781,10.422017097473145,-0.3059674799442291
1681712757604055040,0.004261187743395567,-0.0053264847956597805,0.0010652969358488917,0.05736890062689781,10.422017097473145,-0.3059674799442291
1681712757635990784,0.0021305938716977835,-0.006391781847923994,0.0021305938716977835,0.05736890062689781,10.383770942687988,-0.3059674799442291
1681712757667930880,0.0053264847956597805,-0.004261187743395567,0.0,0.05736890062689781,10.383770942687988,-0.3059674799442291
1681712757667930880,0.004261187743395567,-0.006391781847923994,0.004261187743395567,0.05736890062689781,10.383770942687988,-0.3059674799442291
1681712757699866368,0.0053264847956597805,-0.006391781847923994,-0.0010652969358488917,0.07649186998605728,10.402894020080566,-0.3059674799442291
1681712757731799808,0.003195890923961997,-0.007457078900188208,0.0010652969358488917,0.07649186998605728,10.383770942687988,-0.3059674799442291
1681712757731799808,0.003195890923961997,-0.007457078900188208,0.0010652969358488917,0.07649186998605728,10.383770942687988,-0.3059674799442291
1681712757763736064,0.006391781847923994,-0.006391781847923994,0.0010652969358488917,0.07649186998605728,10.402894020080566,-0.28684452176094055
1681712757795670528,0.006391781847923994,-0.008522375486791134,-0.0010652969358488917,0.05736890062689781,10.402894020080566,-0.3059674799442291
1681712757795670528,0.006391781847923994,-0.008522375486791134,-0.0010652969358488917,0.05736890062689781,10.402894020080566,-0.3059674799442291
1681712757843803136,0.004261187743395567,-0.009587672539055347,0.0010652969358488917,0.07649186998605728,10.402894020080566,-0.3059674799442291
1681712757875741184,0.004261187743395567,-0.0053264847956597805,0.0021305938716977835,0.05736890062689781,10.402894020080566,-0.3059674799442291
1681712757875741184,0.003195890923961997,-0.008522375486791134,0.0010652969358488917,0.05736890062689781,10.402894020080566,-0.3059674799442291
1681712757907681280,0.004261187743395567,-0.006391781847923994,0.0021305938716977835,0.07649186998605728,10.402894020080566,-0.3250904381275177
1681712757939616512,0.003195890923961997,-0.007457078900188208,0.003195890923961997,0.05736890062689781,10.402894020080566,-0.3059674799442291
1681712757939616512,0.0021305938716977835,-0.004261187743395567,0.0,0.05736890062689781,10.402894020080566,-0.3059674799442291
1681712757971555328,0.0021305938716977835,-0.006391781847923994,0.004261187743395567,0.07649186998605728,10.383770942687988,-0.3059674799442291
1681712758003489792,0.0053264847956597805,-0.010652969591319561,0.003195890923961997,0.07649186998605728,10.383770942687988,-0.3059674799442291
1681712758003489792,0.0053264847956597805,-0.010652969591319561,0.003195890923961997,0.07649186998605728,10.383770942687988,-0.3059674799442291
1681712758035426560,0.0053264847956597805,-0.006391781847923994,0.004261187743395567,0.07649186998605728,10.402894020080566,-0.3059674799442291
1681712758067365632,0.003195890923961997,-0.007457078900188208,0.0010652969358488917,0.05736890062689781,10.402894020080566,-0.3059674799442291
1681712758067365632,0.003195890923961997,-0.007457078900188208,0.0010652969358488917,0.05736890062689781,10.402894020080566,-0.3059674799442291
1681712758099300096,0.0021305938716977835,-0.0053264847956597805,-0.0021305938716977835,0.07649186998605728,10.383770942687988,-0.3250904381275177
1681712758131238912,0.006391781847923994,-0.006391781847923994,0.0010652969358488917,0.05736890062689781,10.422017097473145,-0.3059674799442291
1681712758131238912,0.0053264847956597805,-0.007457078900188208,0.0,0.05736890062689781,10.422017097473145,-0.3059674799442291
1681712758163173888,0.004261187743395567,-0.0053264847956597805,0.003195890923961997,0.05736890062689781,10.402894020080566,-0.3059674799442291
1681712758211076096,0.003195890923961997,-0.008522375486791134,0.0010652969358488917,0.07649186998605728,10.402894020080566,-0.3059674799442291
1681712758211076096,0.0021305938716977835,-0.009587672539055347,0.0010652969358488917,0.07649186998605728,10.402894020080566,-0.3059674799442291
1681712758243010560,0.0010652969358488917,-0.006391781847923994,0.0,0.05736890062689781,10.402894020080566,-0.3059674799442291
1681712758274952960,0.0021305938716977835,-0.008522375486791134,0.0021305938716977835,0.05736890062689781,10.422017097473145,-0.3059674799442291
1681712758274952960,0.0021305938716977835,-0.008522375486791134,0.0021305938716977835,0.05736890062689781,10.422017097473145,-0.3059674799442291
1681712758307111424,0.0021305938716977835,-0.006391781847923994,0.0,0.05736890062689781,10.383770942687988,-0.3059674799442291
1681712758339055616,0.004261187743395567,-0.006391781847923994,-0.0021305938716977835,0.05736890062689781,10.422017097473145,-0.3059674799442291
1681712758339055616,0.004261187743395567,-0.006391781847923994,0.0010652969358488917,0.05736890062689781,10.422017097473145,-0.3059674799442291
1681712758371004160,0.0021305938716977835,-0.006391781847923994,0.0053264847956597805,0.05736890062689781,10.402894020080566,-0.3059674799442291
1681712758402949888,0.003195890923961997,-0.0053264847956597805,-0.0010652969358488917,0.07649186998605728,10.383770942687988,-0.3059674799442291
1681712758434893312,0.003195890923961997,-0.0053264847956597805,-0.0021305938716977835,0.05736890062689781,10.422017097473145,-0.3059674799442291
1681712758434893312,0.0053264847956597805,-0.006391781847923994,0.004261187743395567,0.05736890062689781,10.422017097473145,-0.3059674799442291
1681712758466835456,0.004261187743395567,-0.004261187743395567,0.0,0.07649186998605728,10.402894020080566,-0.3059674799442291
1681712758498775040,0.004261187743395567,-0.006391781847923994,0.0,0.05736890062689781,10.402894020080566,-0.3250904381275177
1681712758498775040,0.004261187743395567,-0.006391781847923994,0.0,0.05736890062689781,10.402894020080566,-0.3250904381275177
1681712758530713344,0.003195890923961997,-0.009587672539055347,-0.0010652969358488917,0.05736890062689781,10.383770942687988,-0.28684452176094055
1681712758562653952,0.003195890923961997,-0.004261187743395567,-0.0010652969358488917,0.07649186998605728,10.383770942687988,-0.3059674799442291
1681712758562653952,0.003195890923961997,-0.004261187743395567,-0.0010652969358488917,0.07649186998605728,10.383770942687988,-0.3059674799442291
1681712758610566144,0.0053264847956597805,-0.006391781847923994,0.0053264847956597805,0.05736890062689781,10.402894020080566,-0.3250904381275177
1681712758642504448,0.003195890923961997,-0.0053264847956597805,0.0010652969358488917,0.07649186998605728,10.383770942687988,-0.3059674799442291
1681712758642504448,0.004261187743395567,-0.007457078900188208,0.0021305938716977835,0.07649186998605728,10.383770942687988,-0.3059674799442291
1681712758674445824,0.004261187743395567,-0.0053264847956597805,0.0,0.05736890062689781,10.422017097473145,-0.28684452176094055
1681712758706386176,0.0021305938716977835,-0.007457078900188208,0.0,0.05736890062689781,10.383770942687988,-0.3059674799442291
1681712758706386176,0.0021305938716977835,-0.007457078900188208,0.0,0.05736890062689781,10.383770942687988,-0.3059674799442291
1681712758738327808,0.004261187743395567,-0.009587672539055347,-0.0010652969358488917,0.07649186998605728,10.402894020080566,-0.3059674799442291
1681712758770268160,0.003195890923961997,-0.006391781847923994,0.0021305938716977835,0.05736890062689781,10.422017097473145,-0.3250904381275177
1681712758770268160,0.003195890923961997,-0.006391781847923994,0.0021305938716977835,0.05736890062689781,10.422017097473145,-0.3250904381275177
1681712758802459392,0.0010652969358488917,-0.004261187743395567,-0.0021305938716977835,0.05736890062689781,10.402894020080566,-0.3059674799442291
1681712758834397696,0.006391781847923994,-0.004261187743395567,0.0021305938716977835,0.05736890062689781,10.402894020080566,-0.3059674799442291
1681712758834397696,0.004261187743395567,-0.0053264847956597805,0.0,0.05736890062689781,10.402894020080566,-0.3059674799442291
1681712758866334976,0.0021305938716977835,-0.007457078900188208,0.0010652969358488917,0.07649186998605728,10.383770942687988,-0.28684452176094055
1681712758898277632,0.004261187743395567,-0.0053264847956597805,0.0021305938716977835,0.05736890062689781,10.402894020080566,-0.28684452176094055
1681712758898277632,0.006391781847923994,-0.011718266643583775,-0.003195890923961997,0.05736890062689781,10.402894020080566,-0.28684452176094055
1681712758930219520,0.004261187743395567,-0.003195890923961997,0.0,0.05736890062689781,10.402894020080566,-0.3059674799442291
1681712758962161408,0.004261187743395567,-0.008522375486791134,0.0010652969358488917,0.05736890062689781,10.402894020080566,-0.3059674799442291
1681712758978132480,0.004261187743395567,-0.008522375486791134,0.0010652969358488917,0.05736890062689781,10.402894020080566,-0.3250904381275177
1681712759010075648,0.006391781847923994,-0.008522375486791134,0.0010652969358488917,0.05736890062689781,10.383770942687988,-0.3059674799442291
1681712759042017024,0.0021305938716977835,-0.006391781847923994,0.004261187743395567,0.05736890062689781,10.441140174865723,-0.3059674799442291
1681712759042017024,0.0021305938716977835,-0.006391781847923994,0.004261187743395567,0.05736890062689781,10.441140174865723,-0.3059674799442291
1681712759073955072,0.0053264847956597805,-0.007457078900188208,0.004261187743395567,0.09561483561992645,10.364648818969727,-0.3059674799442291
1681712759105893888,0.0010652969358488917,-0.0053264847956597805,-0.0010652969358488917,0.05736890062689781,10.402894020080566,-0.3059674799442291
1681712759105893888,0.0021305938716977835,-0.007457078900188208,0.0010652969358488917,0.05736890062689781,10.402894020080566,-0.3059674799442291
1681712759137834752,0.004261187743395567,-0.007457078900188208,0.003195890923961997,0.03824593499302864,10.422017097473145,-0.3059674799442291
1681712759169777664,0.003195890923961997,-0.010652969591319561,-0.003195890923961997,0.07649186998605728,10.383770942687988,-0.28684452176094055
1681712759169777664,0.003195890923961997,-0.010652969591319561,-0.003195890923961997,0.07649186998605728,10.383770942687988,-0.28684452176094055
1681712759201722880,0.0053264847956597805,-0.004261187743395567,0.0,0.07649186998605728,10.402894020080566,-0.3059674799442291
1681712759233664512,0.0053264847956597805,-0.0053264847956597805,0.004261187743395567,0.07649186998605728,10.422017097473145,-0.3059674799442291
1681712759233664512,0.0053264847956597805,-0.0053264847956597805,0.004261187743395567,0.07649186998605728,10.422017097473145,-0.3059674799442291
1681712759265604096,0.0053264847956597805,-0.009587672539055347,-0.0010652969358488917,0.07649186998605728,10.383770942687988,-0.28684452176094055
1681712759297545984,0.0,-0.007457078900188208,0.003195890923961997,0.03824593499302864,10.402894020080566,-0.3059674799442291
1681712759297545984,0.0053264847956597805,-0.009587672539055347,0.0,0.03824593499302864,10.402894020080566,-0.3059674799442291
1681712759329749248,0.0021305938716977835,-0.007457078900188208,0.003195890923961997,0.05736890062689781,10.402894020080566,-0.3059674799442291
1681712759377664000,0.0053264847956597805,-0.009587672539055347,0.0,0.07649186998605728,10.422017097473145,-0.28684452176094055
1681712759409604096,0.007457078900188208,-0.0053264847956597805,-0.0021305938716977835,0.07649186998605728,10.402894020080566,-0.3059674799442291
1681712759409604096,0.0021305938716977835,-0.006391781847923994,0.003195890923961997,0.07649186998605728,10.402894020080566,-0.3059674799442291
1681712759441542912,0.0021305938716977835,-0.008522375486791134,-0.0010652969358488917,0.07649186998605728,10.383770942687988,-0.28684452176094055
1681712759473481472,0.0053264847956597805,-0.007457078900188208,-0.0010652969358488917,0.05736890062689781,10.402894020080566,-0.3059674799442291
1681712759473481472,0.0053264847956597805,-0.007457078900188208,-0.0010652969358488917,0.05736890062689781,10.402894020080566,-0.3059674799442291
1681712759505421056,0.0,-0.007457078900188208,0.0,0.07649186998605728,10.383770942687988,-0.3059674799442291
1681712759537359104,0.003195890923961997,-0.006391781847923994,0.0010652969358488917,0.05736890062689781,10.402894020080566,-0.28684452176094055
1681712759537359104,0.003195890923961997,-0.006391781847923994,0.0010652969358488917,0.05736890062689781,10.402894020080566,-0.28684452176094055
1681712759569298432,0.003195890923961997,-0.003195890923961997,-0.003195890923961997,0.05736890062689781,10.422017097473145,-0.28684452176094055
1681712759601236736,0.003195890923961997,-0.006391781847923994,0.0021305938716977835,0.05736890062689781,10.402894020080566,-0.3250904381275177
1681712759601236736,0.003195890923961997,-0.007457078900188208,0.004261187743395567,0.05736890062689781,10.402894020080566,-0.3250904381275177
1681712759633181184,0.004261187743395567,-0.006391781847923994,-0.004261187743395567,0.05736890062689781,10.402894020080566,-0.3250904381275177
1681712759665121024,0.0053264847956597805,-0.006391781847923994,0.003195890923961997,0.07649186998605728,10.402894020080566,-0.28684452176094055
1681712759665121024,0.0053264847956597805,-0.006391781847923994,0.003195890923961997,0.07649186998605728,10.402894020080566,-0.28684452176094055
1681712759697060352,0.0053264847956597805,-0.006391781847923994,0.0,0.07649186998605728,10.402894020080566,-0.3059674799442291
1681712759729001728,0.004261187743395567,-0.009587672539055347,0.003195890923961997,0.07649186998605728,10.402894020080566,-0.3059674799442291
1681712759744971520,0.004261187743395567,-0.009587672539055347,0.003195890923961997,0.05736890062689781,10.383770942687988,-0.3059674799442291
1681712759776913920,0.003195890923961997,-0.009587672539055347,0.003195890923961997,0.07649186998605728,10.402894020080566,-0.3059674799442291
1681712759809067520,0.0021305938716977835,-0.008522375486791134,0.003195890923961997,0.07649186998605728,10.383770942687988,-0.3059674799442291
1681712759841004544,0.0021305938716977835,-0.012783563695847988,-0.0010652969358488917,0.07649186998605728,10.383770942687988,-0.3059674799442291
1681712759841004544,0.0021305938716977835,-0.012783563695847988,-0.0010652969358488917,0.07649186998605728,10.383770942687988,-0.3059674799442291
1681712759872941056,0.004261187743395567,-0.003195890923961997,-0.0010652969358488917,0.07649186998605728,10.402894020080566,-0.28684452176094055
1681712759904877312,0.004261187743395567,-0.007457078900188208,0.0010652969358488917,0.05736890062689781,10.402894020080566,-0.3059674799442291
1681712759904877312,0.004261187743395567,-0.007457078900188208,0.0010652969358488917,0.05736890062689781,10.402894020080566,-0.3059674799442291
1681712759936813568,0.0053264847956597805,-0.009587672539055347,-0.0010652969358488917,0.07649186998605728,10.422017097473145,-0.3059674799442291
1681712759968750080,0.0,-0.007457078900188208,0.003195890923961997,0.07649186998605728,10.402894020080566,-0.3059674799442291
1681712759968750080,0.0053264847956597805,-0.010652969591319561,0.003195890923961997,0.07649186998605728,10.402894020080566,-0.3059674799442291
1681712760000690432,0.003195890923961997,-0.010652969591319561,0.003195890923961997,0.07649186998605728,10.402894020080566,-0.3059674799442291
1681712760032630784,0.006391781847923994,-0.0021305938716977835,0.0,0.07649186998605728,10.402894020080566,-0.3059674799442291
1681712760064565248,0.0021305938716977835,-0.010652969591319561,0.0010652969358488917,0.05736890062689781,10.402894020080566,-0.3059674799442291
1681712760064565248,0.0021305938716977835,-0.007457078900188208,0.0021305938716977835,0.05736890062689781,10.402894020080566,-0.3059674799442291
1681712760112474880,0.0053264847956597805,-0.008522375486791134,0.0021305938716977835,0.05736890062689781,10.402894020080566,-0.3250904381275177
1681712760128446208,0.0021305938716977835,-0.0053264847956597805,0.003195890923961997,0.05736890062689781,10.402894020080566,-0.28684452176094055
1681712760144415744,0.0021305938716977835,-0.0053264847956597805,0.003195890923961997,0.05736890062689781,10.402894020080566,-0.3059674799442291
1681712760176355840,0.0053264847956597805,-0.0053264847956597805,0.0010652969358488917,0.05736890062689781,10.402894020080566,-0.3059674799442291
1681712760208297216,0.003195890923961997,-0.006391781847923994,0.0021305938716977835,0.07649186998605728,10.402894020080566,-0.3059674799442291
1681712760208297216,0.003195890923961997,-0.006391781847923994,0.0021305938716977835,0.07649186998605728,10.402894020080566,-0.3059674799442291
1681712760240239616,0.0010652969358488917,-0.009587672539055347,0.0,0.07649186998605728,10.383770942687988,-0.3059674799442291
1681712760272184576,0.0021305938716977835,-0.009587672539055347,0.0010652969358488917,0.05736890062689781,10.402894020080566,-0.3059674799442291
1681712760272184576,0.004261187743395567,-0.010652969591319561,-0.0021305938716977835,0.05736890062689781,10.402894020080566,-0.3059674799442291
1681712760304125696,0.0021305938716977835,-0.011718266643583775,0.003195890923961997,0.05736890062689781,10.402894020080566,-0.3059674799442291
1681712760336305920,0.007457078900188208,-0.0053264847956597805,0.0010652969358488917,0.05736890062689781,10.402894020080566,-0.28684452176094055
1681712760368251904,0.0021305938716977835,-0.0053264847956597805,0.003195890923961997,0.07649186998605728,10.402894020080566,-0.28684452176094055
1681712760368251904,0.003195890923961997,-0.011718266643583775,0.0021305938716977835,0.07649186998605728,10.402894020080566,-0.28684452176094055
1681712760400194560,0.003195890923961997,-0.007457078900188208,-0.0010652969358488917,0.05736890062689781,10.402894020080566,-0.3059674799442291
1681712760432136192,0.004261187743395567,-0.0053264847956597805,0.0010652969358488917,0.07649186998605728,10.402894020080566,-0.3059674799442291
1681712760432136192,0.004261187743395567,-0.0053264847956597805,0.0010652969358488917,0.07649186998605728,10.402894020080566,-0.3059674799442291
1681712760464072448,0.004261187743395567,-0.007457078900188208,0.0,0.07649186998605728,10.422017097473145,-0.3250904381275177
1681712760496011008,0.003195890923961997,-0.003195890923961997,0.0021305938716977835,0.07649186998605728,10.402894020080566,-0.3059674799442291
1681712760511979520,0.003195890923961997,-0.003195890923961997,0.0021305938716977835,0.07649186998605728,10.422017097473145,-0.3059674799442291
1681712760543919360,0.0053264847956597805,-0.009587672539055347,-0.004261187743395567,0.05736890062689781,10.422017097473145,-0.3059674799442291
1681712760575863552,0.003195890923961997,-0.009587672539055347,0.0021305938716977835,0.03824593499302864,10.402894020080566,-0.3059674799442291
1681712760575863552,0.0053264847956597805,-0.003195890923961997,-0.0010652969358488917,0.03824593499302864,10.402894020080566,-0.3059674799442291
1681712760607813120,0.0021305938716977835,-0.0021305938716977835,0.0021305938716977835,0.05736890062689781,10.402894020080566,-0.28684452176094055
1681712760639758080,-0.0010652969358488917,-0.003195890923961997,0.0021305938716977835,0.05736890062689781,10.402894020080566,-0.28684452176094055
1681712760639758080,-0.0010652969358488917,-0.003195890923961997,0.0021305938716977835,0.05736890062689781,10.402894020080566,-0.28684452176094055
1681712760671698432,0.0021305938716977835,-0.009587672539055347,0.004261187743395567,0.05736890062689781,10.422017097473145,-0.3059674799442291
1681712760703639552,0.003195890923961997,-0.006391781847923994,-0.004261187743395567,0.05736890062689781,10.383770942687988,-0.3059674799442291
1681712760703639552,0.003195890923961997,-0.006391781847923994,-0.004261187743395567,0.05736890062689781,10.383770942687988,-0.3059674799442291
1681712760735580160,0.0010652969358488917,-0.008522375486791134,-0.0010652969358488917,0.05736890062689781,10.402894020080566,-0.3059674799442291
1681712760767520000,0.0021305938716977835,-0.008522375486791134,0.0021305938716977835,0.07649186998605728,10.402894020080566,-0.28684452176094055
1681712760767520000,0.0021305938716977835,-0.008522375486791134,0.0021305938716977835,0.07649186998605728,10.402894020080566,-0.28684452176094055
1681712760799459072,0.004261187743395567,-0.0053264847956597805,0.003195890923961997,0.05736890062689781,10.402894020080566,-0.3059674799442291
1681712760831641856,0.006391781847923994,-0.009587672539055347,0.0010652969358488917,0.07649186998605728,10.402894020080566,-0.28684452176094055
1681712760831641856,0.003195890923961997,-0.008522375486791134,0.0,0.07649186998605728,10.402894020080566,-0.28684452176094055
1681712760879556608,0.0053264847956597805,-0.004261187743395567,0.0,0.05736890062689781,10.402894020080566,-0.28684452176094055
1681712760895527680,0.007457078900188208,-0.008522375486791134,-0.003195890923961997,0.05736890062689781,10.402894020080566,-0.28684452176094055
1681712760911497984,0.007457078900188208,-0.008522375486791134,-0.003195890923961997,0.05736890062689781,10.383770942687988,-0.3059674799442291
1681712760943438848,0.006391781847923994,-0.006391781847923994,0.0,0.07649186998605728,10.402894020080566,-0.3059674799442291
1681712760975377664,0.0021305938716977835,-0.004261187743395567,0.003195890923961997,0.05736890062689781,10.402894020080566,-0.3059674799442291
1681712760975377664,0.0021305938716977835,-0.004261187743395567,0.003195890923961997,0.05736890062689781,10.402894020080566,-0.3059674799442291
1681712761007316480,0.004261187743395567,-0.007457078900188208,0.003195890923961997,0.07649186998605728,10.402894020080566,-0.3059674799442291
1681712761039253760,0.003195890923961997,-0.010652969591319561,0.003195890923961997,0.07649186998605728,10.402894020080566,-0.3059674799442291
1681712761039253760,0.003195890923961997,-0.010652969591319561,0.0010652969358488917,0.07649186998605728,10.402894020080566,-0.3059674799442291
1681712761071194368,0.003195890923961997,-0.008522375486791134,0.003195890923961997,0.07649186998605728,10.383770942687988,-0.3059674799442291
1681712761103135744,0.004261187743395567,-0.0053264847956597805,0.0,0.05736890062689781,10.422017097473145,-0.3059674799442291
1681712761103135744,0.004261187743395567,-0.0053264847956597805,0.0,0.05736890062689781,10.422017097473145,-0.3059674799442291
1681712761135076864,0.004261187743395567,-0.003195890923961997,0.0,0.07649186998605728,10.402894020080566,-0.28684452176094055
1681712761167019264,0.003195890923961997,-0.011718266643583775,0.0,0.07649186998605728,10.383770942687988,-0.3250904381275177
1681712761167019264,0.003195890923961997,-0.011718266643583775,0.0,0.07649186998605728,10.383770942687988,-0.3250904381275177
1681712761214928128,0.004261187743395567,-0.007457078900188208,0.0,0.05736890062689781,10.422017097473145,-0.3059674799442291
1681712761230896896,0.004261187743395567,-0.008522375486791134,0.0021305938716977835,0.05736890062689781,10.422017097473145,-0.3059674799442291
1681712761230896896,0.0021305938716977835,-0.007457078900188208,0.0010652969358488917,0.05736890062689781,10.422017097473145,-0.3059674799442291
1681712761278799104,0.0,-0.009587672539055347,0.0010652969358488917,0.07649186998605728,10.402894020080566,-0.3059674799442291
1681712761310956800,0.0053264847956597805,-0.006391781847923994,0.0010652969358488917,0.07649186998605728,10.402894020080566,-0.3059674799442291
1681712761342892032,0.0010652969358488917,-0.0053264847956597805,0.0,0.05736890062689781,10.422017097473145,-0.28684452176094055
1681712761342892032,0.0021305938716977835,-0.006391781847923994,-0.003195890923961997,0.05736890062689781,10.422017097473145,-0.28684452176094055
1681712761374828544,0.0010652969358488917,-0.006391781847923994,-0.0021305938716977835,0.07649186998605728,10.402894020080566,-0.3059674799442291
1681712761406769152,0.0053264847956597805,-0.006391781847923994,0.0010652969358488917,0.07649186998605728,10.402894020080566,-0.3059674799442291
1681712761406769152,0.0053264847956597805,-0.006391781847923994,0.0010652969358488917,0.07649186998605728,10.402894020080566,-0.3059674799442291
1681712761438709248,0.0021305938716977835,-0.009587672539055347,0.0053264847956597805,0.07649186998605728,10.402894020080566,-0.3059674799442291
1681712761470652928,0.004261187743395567,-0.0053264847956597805,-0.0010652969358488917,0.07649186998605728,10.383770942687988,-0.3059674799442291
1681712761470652928,0.004261187743395567,-0.0053264847956597805,-0.0010652969358488917,0.07649186998605728,10.383770942687988,-0.3059674799442291
1681712761502595328,0.0,-0.007457078900188208,0.003195890923961997,0.07649186998605728,10.402894020080566,-0.3059674799442291
1681712761534533888,0.0021305938716977835,-0.009587672539055347,0.0021305938716977835,0.07649186998605728,10.402894020080566,-0.28684452176094055
1681712761534533888,0.003195890923961997,-0.007457078900188208,-0.0021305938716977835,0.07649186998605728,10.402894020080566,-0.28684452176094055
1681712761566473216,0.0021305938716977835,-0.008522375486791134,0.003195890923961997,0.05736890062689781,10.422017097473145,-0.3059674799442291
1681712761598413312,0.003195890923961997,-0.0053264847956597805,-0.0010652969358488917,0.07649186998605728,10.402894020080566,-0.3059674799442291
1681712761598413312,0.003195890923961997,-0.0053264847956597805,-0.0010652969358488917,0.07649186998605728,10.402894020080566,-0.3059674799442291
1681712761646319104,0.0021305938716977835,-0.010652969591319561,-0.0010652969358488917,0.03824593499302864,10.422017097473145,-0.3250904381275177
1681712761678255872,0.003195890923961997,-0.006391781847923994,0.0010652969358488917,0.07649186998605728,10.402894020080566,-0.28684452176094055
1681712761710191360,0.0021305938716977835,-0.003195890923961997,-0.0010652969358488917,0.05736890062689781,10.402894020080566,-0.3059674799442291
1681712761710191360,0.004261187743395567,-0.007457078900188208,0.0021305938716977835,0.05736890062689781,10.402894020080566,-0.3059674799442291
1681712761742127872,0.0010652969358488917,-0.006391781847923994,0.0,0.07649186998605728,10.402894020080566,-0.3059674799442291
1681712761774070272,0.0010652969358488917,-0.004261187743395567,0.0,0.07649186998605728,10.402894020080566,-0.3059674799442291
1681712761806011648,0.0053264847956597805,-0.007457078900188208,-0.003195890923961997,0.03824593499302864,10.422017097473145,-0.28684452176094055
1681712761806011648,0.0010652969358488917,-0.008522375486791134,0.004261187743395567,0.03824593499302864,10.422017097473145,-0.28684452176094055
1681712761838205696,0.004261187743395567,-0.010652969591319561,0.003195890923961997,0.05736890062689781,10.402894020080566,-0.28684452176094055
1681712761870142464,0.0053264847956597805,-0.006391781847923994,-0.0010652969358488917,0.07649186998605728,10.402894020080566,-0.3059674799442291
1681712761870142464,0.0053264847956597805,-0.006391781847923994,-0.0010652969358488917,0.07649186998605728,10.402894020080566,-0.3059674799442291
1681712761902081792,0.0021305938716977835,-0.006391781847923994,-0.0010652969358488917,0.05736890062689781,10.402894020080566,-0.3059674799442291
1681712761934021120,0.0021305938716977835,-0.006391781847923994,-0.003195890923961997,0.07649186998605728,10.402894020080566,-0.3250904381275177
1681712761934021120,0.0021305938716977835,-0.006391781847923994,-0.003195890923961997,0.07649186998605728,10.402894020080566,-0.3250904381275177
1681712761965960448,0.0053264847956597805,-0.004261187743395567,0.0021305938716977835,0.07649186998605728,10.402894020080566,-0.3059674799442291
1681712761997900032,0.0010652969358488917,-0.010652969591319561,-0.0010652969358488917,0.05736890062689781,10.402894020080566,-0.3250904381275177
1681712761997900032,0.0053264847956597805,-0.009587672539055347,0.0010652969358488917,0.05736890062689781,10.402894020080566,-0.3250904381275177
1681712762045805312,0.004261187743395567,-0.004261187743395567,-0.0010652969358488917,0.03824593499302864,10.402894020080566,-0.3059674799442291
1681712762077745664,0.004261187743395567,-0.008522375486791134,0.003195890923961997,0.07649186998605728,10.383770942687988,-0.3059674799442291
1681712762077745664,0.004261187743395567,-0.008522375486791134,0.003195890923961997,0.07649186998605728,10.383770942687988,-0.3059674799442291
1681712762109688064,0.004261187743395567,-0.007457078900188208,0.0010652969358488917,0.05736890062689781,10.402894020080566,-0.3059674799442291
1681712762141626880,0.004261187743395567,-0.010652969591319561,0.0,0.07649186998605728,10.402894020080566,-0.28684452176094055
1681712762173568768,0.0053264847956597805,-0.006391781847923994,-0.0010652969358488917,0.07649186998605728,10.402894020080566,-0.3250904381275177
1681712762173568768,0.0053264847956597805,-0.006391781847923994,-0.0010652969358488917,0.07649186998605728,10.402894020080566,-0.3250904381275177
1681712762205511680,0.003195890923961997,-0.006391781847923994,0.003195890923961997,0.07649186998605728,10.402894020080566,-0.3059674799442291
1681712762237457920,0.004261187743395567,-0.007457078900188208,0.004261187743395567,0.05736890062689781,10.422017097473145,-0.28684452176094055
1681712762237457920,0.004261187743395567,-0.007457078900188208,0.004261187743395567,0.05736890062689781,10.422017097473145,-0.28684452176094055
1681712762269398784,0.003195890923961997,-0.0053264847956597805,0.0010652969358488917,0.03824593499302864,10.402894020080566,-0.3059674799442291
1681712762301339904,0.003195890923961997,-0.0053264847956597805,0.0021305938716977835,0.05736890062689781,10.402894020080566,-0.28684452176094055
1681712762333507840,0.003195890923961997,-0.008522375486791134,0.0021305938716977835,0.05736890062689781,10.402894020080566,-0.3059674799442291
1681712762333507840,0.003195890923961997,-0.008522375486791134,0.0021305938716977835,0.05736890062689781,10.402894020080566,-0.3059674799442291
1681712762365455104,0.0,-0.007457078900188208,0.0,0.05736890062689781,10.402894020080566,-0.3250904381275177
1681712762397397248,0.008522375486791134,-0.007457078900188208,0.0021305938716977835,0.05736890062689781,10.383770942687988,-0.3059674799442291
1681712762413367552,0.0021305938716977835,-0.007457078900188208,0.0010652969358488917,0.05736890062689781,10.402894020080566,-0.3059674799442291
1681712762445312000,0.004261187743395567,-0.004261187743395567,0.0,0.07649186998605728,10.402894020080566,-0.28684452176094055
1681712762477250560,0.003195890923961997,-0.008522375486791134,-0.0010652969358488917,0.05736890062689781,10.402894020080566,-0.3059674799442291
1681712762477250560,0.003195890923961997,-0.008522375486791134,-0.0010652969358488917,0.05736890062689781,10.402894020080566,-0.3059674799442291
1681712762509185280,0.0021305938716977835,-0.008522375486791134,-0.0010652969358488917,0.07649186998605728,10.383770942687988,-0.3059674799442291
1681712762541122560,0.004261187743395567,-0.008522375486791134,-0.0021305938716977835,0.05736890062689781,10.402894020080566,-0.3059674799442291
1681712762541122560,0.004261187743395567,-0.008522375486791134,-0.0021305938716977835,0.05736890062689781,10.402894020080566,-0.3059674799442291
1681712762573058816,0.0010652969358488917,-0.010652969591319561,0.0021305938716977835,0.03824593499302864,10.402894020080566,-0.28684452176094055
1681712762604995328,0.004261187743395567,-0.006391781847923994,0.0010652969358488917,0.07649186998605728,10.422017097473145,-0.3059674799442291
1681712762604995328,0.006391781847923994,0.0,0.0021305938716977835,0.07649186998605728,10.422017097473145,-0.3059674799442291
1681712762636932096,0.004261187743395567,-0.009587672539055347,-0.0021305938716977835,0.07649186998605728,10.402894020080566,-0.3059674799442291
1681712762668872448,0.004261187743395567,-0.006391781847923994,0.0,0.05736890062689781,10.402894020080566,-0.28684452176094055
1681712762668872448,0.0021305938716977835,-0.007457078900188208,0.0,0.05736890062689781,10.402894020080566,-0.28684452176094055
1681712762700808192,0.0053264847956597805,-0.008522375486791134,-0.0010652969358488917,0.05736890062689781,10.422017097473145,-0.28684452176094055
1681712762732741632,0.0021305938716977835,-0.008522375486791134,0.004261187743395567,0.05736890062689781,10.402894020080566,-0.3059674799442291
1681712762732741632,0.0021305938716977835,-0.008522375486791134,0.004261187743395567,0.05736890062689781,10.402894020080566,-0.3059674799442291
1681712762764678144,0.003195890923961997,-0.008522375486791134,0.0021305938716977835,0.07649186998605728,10.402894020080566,-0.3059674799442291
1681712762796613632,0.003195890923961997,-0.004261187743395567,0.0010652969358488917,0.05736890062689781,10.402894020080566,-0.3059674799442291
1681712762812747776,0.003195890923961997,-0.004261187743395567,0.0010652969358488917,0.07649186998605728,10.402894020080566,-0.3059674799442291
1681712762844682752,0.004261187743395567,-0.006391781847923994,-0.0010652969358488917,0.07649186998605728,10.402894020080566,-0.3059674799442291
1681712762876620800,0.004261187743395567,-0.0053264847956597805,0.0021305938716977835,0.07649186998605728,10.402894020080566,-0.3059674799442291
1681712762876620800,0.006391781847923994,-0.006391781847923994,0.0,0.07649186998605728,10.402894020080566,-0.3059674799442291
1681712762908567296,0.0,-0.0053264847956597805,0.0010652969358488917,0.05736890062689781,10.402894020080566,-0.3059674799442291
1681712762940512256,0.0021305938716977835,-0.008522375486791134,0.0021305938716977835,0.07649186998605728,10.383770942687988,-0.3059674799442291
1681712762940512256,0.0021305938716977835,-0.008522375486791134,0.0021305938716977835,0.07649186998605728,10.383770942687988,-0.3059674799442291
1681712762972460032,0.0021305938716977835,-0.0053264847956597805,0.0010652969358488917,0.05736890062689781,10.402894020080566,-0.3059674799442291
1681712763004400384,0.003195890923961997,-0.004261187743395567,0.004261187743395567,0.07649186998605728,10.402894020080566,-0.28684452176094055
1681712763004400384,0.003195890923961997,-0.004261187743395567,0.004261187743395567,0.07649186998605728,10.402894020080566,-0.28684452176094055
1681712763036341760,0.0021305938716977835,-0.009587672539055347,0.0021305938716977835,0.05736890062689781,10.402894020080566,-0.28684452176094055
1681712763068280064,0.0021305938716977835,-0.010652969591319561,0.0021305938716977835,0.05736890062689781,10.383770942687988,-0.28684452176094055
1681712763068280064,0.003195890923961997,-0.0053264847956597805,0.0,0.05736890062689781,10.383770942687988,-0.28684452176094055
1681712763100219136,0.004261187743395567,-0.009587672539055347,-0.004261187743395567,0.05736890062689781,10.422017097473145,-0.28684452176094055
1681712763132160256,0.003195890923961997,-0.010652969591319561,0.0010652969358488917,0.07649186998605728,10.402894020080566,-0.28684452176094055
1681712763132160256,0.003195890923961997,-0.010652969591319561,0.0010652969358488917,0.07649186998605728,10.402894020080566,-0.28684452176094055
1681712763180065792,0.003195890923961997,-0.011718266643583775,0.0010652969358488917,0.05736890062689781,10.402894020080566,-0.3059674799442291
1681712763212005120,0.0010652969358488917,-0.0053264847956597805,0.0,0.05736890062689781,10.402894020080566,-0.28684452176094055
1681712763212005120,0.0010652969358488917,-0.0053264847956597805,0.0,0.05736890062689781,10.402894020080566,-0.28684452176094055
1681712763243942400,0.0,-0.007457078900188208,0.0,0.07649186998605728,10.422017097473145,-0.28684452176094055
1681712763275879936,0.0053264847956597805,-0.0053264847956597805,-0.0010652969358488917,0.07649186998605728,10.402894020080566,-0.3250904381275177
1681712763307817472,0.003195890923961997,-0.008522375486791134,0.004261187743395567,0.05736890062689781,10.402894020080566,-0.3059674799442291
1681712763307817472,0.003195890923961997,-0.008522375486791134,0.004261187743395567,0.05736890062689781,10.402894020080566,-0.3059674799442291
1681712763339755008,0.006391781847923994,-0.006391781847923994,0.0021305938716977835,0.07649186998605728,10.402894020080566,-0.3059674799442291
1681712763371699200,0.003195890923961997,-0.008522375486791134,0.0,0.07649186998605728,10.422017097473145,-0.3059674799442291
1681712763371699200,0.003195890923961997,-0.007457078900188208,0.003195890923961997,0.07649186998605728,10.422017097473145,-0.3059674799442291
1681712763403637760,0.003195890923961997,-0.006391781847923994,0.0,0.07649186998605728,10.402894020080566,-0.3059674799442291
1681712763435576576,0.0021305938716977835,-0.0053264847956597805,0.0010652969358488917,0.05736890062689781,10.402894020080566,-0.3059674799442291
1681712763435576576,0.0021305938716977835,-0.0053264847956597805,0.0010652969358488917,0.05736890062689781,10.402894020080566,-0.3059674799442291
1681712763467515648,0.0010652969358488917,-0.007457078900188208,0.004261187743395567,0.05736890062689781,10.422017097473145,-0.3059674799442291
1681712763499453440,0.003195890923961997,-0.007457078900188208,0.0021305938716977835,0.07649186998605728,10.402894020080566,-0.3059674799442291
1681712763499453440,0.003195890923961997,-0.007457078900188208,0.0021305938716977835,0.07649186998605728,10.402894020080566,-0.3059674799442291
1681712763531392256,0.004261187743395567,-0.006391781847923994,0.003195890923961997,0.07649186998605728,10.422017097473145,-0.3059674799442291
1681712763563331328,0.0053264847956597805,-0.006391781847923994,0.003195890923961997,0.07649186998605728,10.402894020080566,-0.3059674799442291
1681712763579300096,0.0053264847956597805,-0.006391781847923994,0.003195890923961997,0.05736890062689781,10.402894020080566,-0.3059674799442291
1681712763611235328,0.004261187743395567,-0.004261187743395567,0.0,0.07649186998605728,10.422017097473145,-0.3059674799442291
1681712763643172864,0.003195890923961997,-0.004261187743395567,0.0,0.05736890062689781,10.402894020080566,-0.28684452176094055
1681712763643172864,0.003195890923961997,-0.0053264847956597805,0.003195890923961997,0.05736890062689781,10.402894020080566,-0.28684452176094055
1681712763675110144,0.006391781847923994,-0.006391781847923994,0.0,0.05736890062689781,10.402894020080566,-0.3059674799442291
1681712763707044608,0.003195890923961997,-0.006391781847923994,0.0,0.07649186998605728,10.402894020080566,-0.3059674799442291
1681712763707044608,0.003195890923961997,-0.006391781847923994,0.0,0.07649186998605728,10.402894020080566,-0.3059674799442291
1681712763738976512,0.003195890923961997,-0.008522375486791134,0.0,0.07649186998605728,10.422017097473145,-0.3059674799442291
1681712763770908672,0.0010652969358488917,-0.006391781847923994,0.004261187743395567,0.07649186998605728,10.422017097473145,-0.3059674799442291
1681712763770908672,0.0010652969358488917,-0.006391781847923994,0.004261187743395567,0.07649186998605728,10.422017097473145,-0.3059674799442291
1681712763802842368,0.004261187743395567,-0.004261187743395567,0.003195890923961997,0.05736890062689781,10.402894020080566,-0.3059674799442291
1681712763835342848,0.003195890923961997,-0.004261187743395567,0.0010652969358488917,0.05736890062689781,10.402894020080566,-0.3059674799442291
1681712763835342848,0.003195890923961997,-0.006391781847923994,0.0,0.05736890062689781,10.402894020080566,-0.3059674799442291
1681712763867277568,0.0021305938716977835,-0.004261187743395567,0.0021305938716977835,0.05736890062689781,10.402894020080566,-0.3059674799442291
1681712763899212800,0.004261187743395567,-0.0010652969358488917,0.0021305938716977835,0.07649186998605728,10.422017097473145,-0.28684452176094055
1681712763899212800,0.004261187743395567,-0.0010652969358488917,0.0021305938716977835,0.07649186998605728,10.422017097473145,-0.28684452176094055
1681712763947116544,-0.0010652969358488917,-0.009587672539055347,0.004261187743395567,0.05736890062689781,10.402894020080566,-0.3059674799442291
1681712763979051264,0.006391781847923994,-0.006391781847923994,-0.0010652969358488917,0.05736890062689781,10.402894020080566,-0.3059674799442291
1681712763979051264,0.006391781847923994,-0.006391781847923994,-0.0010652969358488917,0.05736890062689781,10.402894020080566,-0.3059674799442291
1681712764010984960,0.0053264847956597805,-0.004261187743395567,-0.0010652969358488917,0.05736890062689781,10.402894020080566,-0.3059674799442291
1681712764042924800,0.006391781847923994,-0.0053264847956597805,0.0010652969358488917,0.07649186998605728,10.383770942687988,-0.3059674799442291
1681712764042924800,0.0010652969358488917,-0.007457078900188208,0.003195890923961997,0.07649186998605728,10.383770942687988,-0.3059674799442291
1681712764074856960,0.003195890923961997,-0.009587672539055347,0.003195890923961997,0.07649186998605728,10.402894020080566,-0.3059674799442291
1681712764106795264,0.0021305938716977835,-0.008522375486791134,0.0010652969358488917,0.07649186998605728,10.402894020080566,-0.3059674799442291
1681712764106795264,0.0021305938716977835,-0.008522375486791134,0.0010652969358488917,0.07649186998605728,10.402894020080566,-0.3059674799442291
1681712764138732800,0.0021305938716977835,-0.008522375486791134,-0.0010652969358488917,0.07649186998605728,10.402894020080566,-0.3250904381275177
1681712764170673920,0.004261187743395567,-0.008522375486791134,0.0010652969358488917,0.05736890062689781,10.402894020080566,-0.3059674799442291
1681712764170673920,0.004261187743395567,-0.008522375486791134,0.0010652969358488917,0.05736890062689781,10.402894020080566,-0.3059674799442291
1681712764202612480,0.003195890923961997,-0.011718266643583775,0.0,0.07649186998605728,10.422017097473145,-0.3059674799442291
1681712764234551296,0.0053264847956597805,-0.004261187743395567,0.003195890923961997,0.05736890062689781,10.422017097473145,-0.28684452176094055
1681712764266489088,0.0,-0.009587672539055347,-0.0010652969358488917,0.05736890062689781,10.422017097473145,-0.3059674799442291
1681712764266489088,0.0,-0.009587672539055347,-0.0010652969358488917,0.05736890062689781,10.422017097473145,-0.3059674799442291
1681712764314397440,0.0010652969358488917,-0.008522375486791134,0.0053264847956597805,0.05736890062689781,10.383770942687988,-0.3059674799442291
1681712764330596608,0.004261187743395567,-0.008522375486791134,0.003195890923961997,0.05736890062689781,10.402894020080566,-0.28684452176094055
1681712764346565888,0.003195890923961997,-0.008522375486791134,0.0021305938716977835,0.05736890062689781,10.422017097473145,-0.28684452176094055
1681712764378504960,0.0021305938716977835,-0.011718266643583775,0.0010652969358488917,0.07649186998605728,10.383770942687988,-0.3059674799442291
1681712764410444032,0.0021305938716977835,-0.007457078900188208,0.0010652969358488917,0.07649186998605728,10.402894020080566,-0.28684452176094055
1681712764410444032,0.0021305938716977835,-0.007457078900188208,0.0010652969358488917,0.07649186998605728,10.402894020080566,-0.28684452176094055
1681712764442381824,0.007457078900188208,-0.006391781847923994,-0.0010652969358488917,0.05736890062689781,10.402894020080566,-0.28684452176094055
1681712764474320896,0.003195890923961997,-0.0053264847956597805,-0.0010652969358488917,0.07649186998605728,10.422017097473145,-0.3059674799442291
1681712764474320896,0.003195890923961997,-0.0053264847956597805,-0.0010652969358488917,0.07649186998605728,10.422017097473145,-0.3059674799442291
1681712764506260480,0.0010652969358488917,-0.0053264847956597805,-0.0021305938716977835,0.05736890062689781,10.422017097473145,-0.3250904381275177
1681712764538202112,0.0010652969358488917,-0.008522375486791134,0.003195890923961997,0.07649186998605728,10.383770942687988,-0.3059674799442291
1681712764538202112,0.0010652969358488917,-0.008522375486791134,0.003195890923961997,0.07649186998605728,10.383770942687988,-0.3059674799442291
1681712764570138880,0.0021305938716977835,-0.006391781847923994,0.0021305938716977835,0.07649186998605728,10.422017097473145,-0.3059674799442291
1681712764602075136,0.003195890923961997,-0.003195890923961997,0.003195890923961997,0.05736890062689781,10.422017097473145,-0.3250904381275177
1681712764602075136,0.003195890923961997,-0.007457078900188208,0.003195890923961997,0.05736890062689781,10.422017097473145,-0.3250904381275177
1681712764634014976,0.0010652969358488917,-0.008522375486791134,0.0010652969358488917,0.07649186998605728,10.402894020080566,-0.3250904381275177
1681712764665956608,0.0010652969358488917,-0.006391781847923994,-0.003195890923961997,0.05736890062689781,10.422017097473145,-0.3059674799442291
1681712764665956608,0.0010652969358488917,-0.006391781847923994,-0.003195890923961997,0.05736890062689781,10.422017097473145,-0.3059674799442291
1681712764713870592,0.0010652969358488917,-0.008522375486791134,0.003195890923961997,0.05736890062689781,10.402894020080566,-0.3059674799442291
1681712764745808896,0.0010652969358488917,-0.009587672539055347,0.0010652969358488917,0.07649186998605728,10.402894020080566,-0.3059674799442291
1681712764745808896,0.0010652969358488917,-0.009587672539055347,0.0010652969358488917,0.07649186998605728,10.402894020080566,-0.3059674799442291
1681712764777747200,0.0010652969358488917,-0.006391781847923994,0.0,0.05736890062689781,10.422017097473145,-0.3250904381275177
1681712764809685504,0.0021305938716977835,-0.006391781847923994,0.003195890923961997,0.07649186998605728,10.402894020080566,-0.3059674799442291
1681712764809685504,0.0021305938716977835,-0.010652969591319561,0.003195890923961997,0.07649186998605728,10.402894020080566,-0.3059674799442291
1681712764841848576,0.0053264847956597805,-0.007457078900188208,-0.0021305938716977835,0.05736890062689781,10.402894020080566,-0.28684452176094055
1681712764873791232,0.003195890923961997,-0.003195890923961997,0.003195890923961997,0.05736890062689781,10.402894020080566,-0.3059674799442291
1681712764873791232,0.003195890923961997,-0.003195890923961997,0.003195890923961997,0.05736890062689781,10.402894020080566,-0.3059674799442291
1681712764905734400,0.003195890923961997,-0.009587672539055347,0.0021305938716977835,0.05736890062689781,10.402894020080566,-0.3059674799442291
1681712764937672448,0.0053264847956597805,-0.006391781847923994,0.0021305938716977835,0.05736890062689781,10.422017097473145,-0.3059674799442291
1681712764937672448,0.0053264847956597805,-0.006391781847923994,0.0021305938716977835,0.05736890062689781,10.422017097473145,-0.3059674799442291
1681712764969609728,0.007457078900188208,-0.008522375486791134,0.0010652969358488917,0.05736890062689781,10.402894020080566,-0.3059674799442291
1681712765001545728,0.004261187743395567,-0.004261187743395567,0.0,0.07649186998605728,10.402894020080566,-0.3250904381275177
1681712765001545728,0.006391781847923994,-0.006391781847923994,0.003195890923961997,0.07649186998605728,10.402894020080566,-0.3250904381275177
1681712765033485312,0.003195890923961997,-0.009587672539055347,0.0010652969358488917,0.07649186998605728,10.402894020080566,-0.3059674799442291
1681712765065420288,0.004261187743395567,-0.0053264847956597805,-0.003195890923961997,0.05736890062689781,10.402894020080566,-0.3059674799442291
1681712765081388288,0.004261187743395567,-0.0053264847956597805,-0.003195890923961997,0.07649186998605728,10.402894020080566,-0.3059674799442291
1681712765113330432,0.0,-0.006391781847923994,0.0,0.05736890062689781,10.402894020080566,-0.3059674799442291
1681712765145275136,0.003195890923961997,-0.007457078900188208,0.0,0.05736890062689781,10.402894020080566,-0.28684452176094055
1681712765145275136,0.003195890923961997,-0.007457078900188208,0.0,0.05736890062689781,10.402894020080566,-0.28684452176094055
1681712765177218816,0.003195890923961997,-0.0053264847956597805,0.0021305938716977835,0.07649186998605728,10.402894020080566,-0.3059674799442291
1681712765209155584,0.0,-0.009587672539055347,0.003195890923961997,0.05736890062689781,10.402894020080566,-0.28684452176094055
1681712765241086208,0.0,-0.007457078900188208,0.003195890923961997,0.05736890062689781,10.402894020080566,-0.3059674799442291
1681712765241086208,0.0,-0.007457078900188208,0.003195890923961997,0.05736890062689781,10.402894020080566,-0.3059674799442291
1681712765273021440,0.003195890923961997,-0.006391781847923994,0.0010652969358488917,0.05736890062689781,10.402894020080566,-0.3059674799442291
1681712765304960256,0.0,-0.009587672539055347,0.003195890923961997,0.07649186998605728,10.422017097473145,-0.3059674799442291
1681712765304960256,0.003195890923961997,-0.010652969591319561,-0.0021305938716977835,0.07649186998605728,10.422017097473145,-0.3059674799442291
1681712765337135360,0.004261187743395567,-0.0053264847956597805,-0.0021305938716977835,0.05736890062689781,10.402894020080566,-0.28684452176094055
1681712765369075456,0.0021305938716977835,-0.007457078900188208,0.0021305938716977835,0.05736890062689781,10.364648818969727,-0.3059674799442291
1681712765369075456,0.003195890923961997,-0.008522375486791134,0.003195890923961997,0.05736890062689781,10.364648818969727,-0.3059674799442291
1681712765401014016,0.004261187743395567,-0.006391781847923994,-0.0021305938716977835,0.05736890062689781,10.422017097473145,-0.3059674799442291
1681712765432953600,0.0053264847956597805,-0.007457078900188208,0.0,0.05736890062689781,10.402894020080566,-0.3059674799442291
1681712765432953600,0.0053264847956597805,-0.007457078900188208,0.0,0.05736890062689781,10.402894020080566,-0.3059674799442291
1681712765480865792,0.003195890923961997,-0.006391781847923994,0.003195890923961997,0.05736890062689781,10.402894020080566,-0.3250904381275177
1681712765512808448,0.004261187743395567,-0.008522375486791134,-0.0010652969358488917,0.07649186998605728,10.402894020080566,-0.28684452176094055
1681712765512808448,0.004261187743395567,-0.008522375486791134,-0.0010652969358488917,0.07649186998605728,10.402894020080566,-0.28684452176094055
1681712765544745472,0.0,-0.012783563695847988,-0.0010652969358488917,0.07649186998605728,10.402894020080566,-0.3059674799442291
1681712765576684032,0.0053264847956597805,-0.0053264847956597805,0.0021305938716977835,0.05736890062689781,10.402894020080566,-0.3059674799442291
1681712765576684032,0.0010652969358488917,-0.007457078900188208,0.0021305938716977835,0.05736890062689781,10.402894020080566,-0.3059674799442291
1681712765608625152,0.004261187743395567,-0.010652969591319561,0.0021305938716977835,0.07649186998605728,10.383770942687988,-0.3059674799442291
1681712765640563968,0.004261187743395567,-0.0053264847956597805,0.0021305938716977835,0.05736890062689781,10.422017097473145,-0.3059674799442291
1681712765640563968,0.004261187743395567,-0.0053264847956597805,0.0021305938716977835,0.05736890062689781,10.422017097473145,-0.3059674799442291
1681712765672506112,0.004261187743395567,-0.008522375486791134,0.0010652969358488917,0.07649186998605728,10.383770942687988,-0.3059674799442291
1681712765704452096,0.0053264847956597805,-0.004261187743395567,-0.0010652969358488917,0.05736890062689781,10.422017097473145,-0.3059674799442291
1681712765704452096,0.0053264847956597805,-0.004261187743395567,-0.0010652969358488917,0.05736890062689781,10.422017097473145,-0.3059674799442291
1681712765736391680,0.0,-0.007457078900188208,0.0,0.05736890062689781,10.422017097473145,-0.3059674799442291
1681712765768329984,0.0021305938716977835,-0.009587672539055347,0.0010652969358488917,0.07649186998605728,10.402894020080566,-0.3059674799442291
1681712765768329984,0.0,-0.0053264847956597805,0.003195890923961997,0.07649186998605728,10.402894020080566,-0.3059674799442291
1681712765800267520,0.0021305938716977835,-0.006391781847923994,0.0021305938716977835,0.07649186998605728,10.402894020080566,-0.3059674799442291
1681712765832445184,0.003195890923961997,-0.004261187743395567,0.003195890923961997,0.07649186998605728,10.422017097473145,-0.3059674799442291
1681712765848415488,0.003195890923961997,-0.004261187743395567,0.003195890923961997,0.05736890062689781,10.402894020080566,-0.3059674799442291
1681712765880354048,0.003195890923961997,-0.0053264847956597805,-0.003195890923961997,0.05736890062689781,10.402894020080566,-0.3059674799442291
1681712765912293376,0.003195890923961997,-0.009587672539055347,0.0,0.07649186998605728,10.422017097473145,-0.3059674799442291
1681712765912293376,0.003195890923961997,-0.009587672539055347,0.0,0.07649186998605728,10.422017097473145,-0.3059674799442291
1681712765944230144,0.0021305938716977835,-0.006391781847923994,0.0010652969358488917,0.05736890062689781,10.402894020080566,-0.3059674799442291
1681712765976166400,0.0010652969358488917,-0.008522375486791134,0.0,0.05736890062689781,10.402894020080566,-0.28684452176094055
1681712765976166400,0.0053264847956597805,-0.006391781847923994,0.0,0.05736890062689781,10.402894020080566,-0.28684452176094055
1681712766008104192,0.003195890923961997,-0.007457078900188208,0.004261187743395567,0.05736890062689781,10.402894020080566,-0.3059674799442291
1681712766040044032,0.0053264847956597805,-0.008522375486791134,0.0010652969358488917,0.05736890062689781,10.402894020080566,-0.28684452176094055
1681712766040044032,0.0053264847956597805,-0.008522375486791134,0.0010652969358488917,0.05736890062689781,10.402894020080566,-0.28684452176094055
1681712766071982592,0.0021305938716977835,-0.006391781847923994,0.003195890923961997,0.05736890062689781,10.402894020080566,-0.3250904381275177
1681712766103918848,0.0,-0.006391781847923994,0.004261187743395567,0.07649186998605728,10.402894020080566,-0.3059674799442291
1681712766103918848,0.0,-0.006391781847923994,0.004261187743395567,0.07649186998605728,10.402894020080566,-0.3059674799442291
1681712766135860224,0.003195890923961997,-0.009587672539055347,0.003195890923961997,0.07649186998605728,10.402894020080566,-0.267721563577652
1681712766167793920,0.003195890923961997,-0.003195890923961997,-0.0010652969358488917,0.05736890062689781,10.402894020080566,-0.28684452176094055
1681712766167793920,0.0021305938716977835,-0.008522375486791134,-0.0021305938716977835,0.05736890062689781,10.402894020080566,-0.28684452176094055
1681712766199734784,0.0021305938716977835,-0.006391781847923994,0.0010652969358488917,0.05736890062689781,10.402894020080566,-0.28684452176094055
1681712766231677184,0.0021305938716977835,-0.008522375486791134,-0.0021305938716977835,0.05736890062689781,10.383770942687988,-0.3059674799442291
1681712766247647744,0.0021305938716977835,-0.008522375486791134,-0.0021305938716977835,0.05736890062689781,10.402894020080566,-0.3059674799442291
1681712766279584512,0.003195890923961997,-0.0053264847956597805,-0.0010652969358488917,0.07649186998605728,10.402894020080566,-0.3059674799442291
1681712766311527680,0.0021305938716977835,-0.004261187743395567,0.0,0.05736890062689781,10.402894020080566,-0.3059674799442291
1681712766311527680,0.0021305938716977835,-0.004261187743395567,0.0,0.05736890062689781,10.402894020080566,-0.3059674799442291
1681712766343660800,0.004261187743395567,-0.011718266643583775,0.0010652969358488917,0.07649186998605728,10.402894020080566,-0.3059674799442291
1681712766375600896,0.0010652969358488917,-0.006391781847923994,-0.0010652969358488917,0.05736890062689781,10.402894020080566,-0.3059674799442291
1681712766375600896,0.0010652969358488917,-0.006391781847923994,-0.0010652969358488917,0.05736890062689781,10.402894020080566,-0.3059674799442291
1681712766407537664,0.004261187743395567,-0.009587672539055347,0.0010652969358488917,0.05736890062689781,10.402894020080566,-0.28684452176094055
1681712766439474688,0.006391781847923994,-0.009587672539055347,-0.003195890923961997,0.05736890062689781,10.402894020080566,-0.28684452176094055
1681712766439474688,0.0,-0.003195890923961997,0.0021305938716977835,0.05736890062689781,10.402894020080566,-0.28684452176094055
1681712766471411712,0.0053264847956597805,-0.007457078900188208,-0.0010652969358488917,0.05736890062689781,10.402894020080566,-0.3059674799442291
1681712766503349504,0.0010652969358488917,-0.008522375486791134,0.0021305938716977835,0.05736890062689781,10.383770942687988,-0.28684452176094055
1681712766503349504,0.0010652969358488917,-0.008522375486791134,0.0021305938716977835,0.05736890062689781,10.383770942687988,-0.28684452176094055
1681712766535286784,0.0010652969358488917,-0.004261187743395567,0.0021305938716977835,0.05736890062689781,10.402894020080566,-0.3059674799442291
1681712766567228416,0.003195890923961997,-0.007457078900188208,0.0021305938716977835,0.05736890062689781,10.402894020080566,-0.28684452176094055
1681712766567228416,0.003195890923961997,-0.007457078900188208,0.0021305938716977835,0.05736890062689781,10.402894020080566,-0.28684452176094055
1681712766615142912,0.003195890923961997,-0.011718266643583775,0.0021305938716977835,0.05736890062689781,10.402894020080566,-0.3059674799442291
1681712766647084544,0.004261187743395567,-0.010652969591319561,0.0,0.07649186998605728,10.383770942687988,-0.3059674799442291
1681712766647084544,0.004261187743395567,-0.0053264847956597805,0.0010652969358488917,0.07649186998605728,10.383770942687988,-0.3059674799442291
1681712766679030784,0.0010652969358488917,-0.0053264847956597805,0.0,0.05736890062689781,10.422017097473145,-0.3059674799442291
1681712766710976000,0.003195890923961997,-0.006391781847923994,0.0,0.05736890062689781,10.402894020080566,-0.3059674799442291
1681712766710976000,0.003195890923961997,-0.006391781847923994,0.0,0.05736890062689781,10.402894020080566,-0.3059674799442291
1681712766742921216,0.0010652969358488917,-0.009587672539055347,-0.0010652969358488917,0.05736890062689781,10.402894020080566,-0.3250904381275177
1681712766774863360,0.003195890923961997,-0.0053264847956597805,0.003195890923961997,0.05736890062689781,10.402894020080566,-0.3059674799442291
1681712766774863360,0.003195890923961997,-0.0053264847956597805,0.003195890923961997,0.05736890062689781,10.402894020080566,-0.3059674799442291
1681712766806803712,0.0021305938716977835,-0.007457078900188208,0.0,0.05736890062689781,10.402894020080566,-0.3059674799442291
1681712766839022336,0.0053264847956597805,-0.0053264847956597805,0.0,0.05736890062689781,10.402894020080566,-0.3059674799442291
1681712766839022336,0.003195890923961997,-0.0053264847956597805,0.004261187743395567,0.05736890062689781,10.402894020080566,-0.3059674799442291
1681712766870961152,0.0021305938716977835,-0.009587672539055347,0.003195890923961997,0.05736890062689781,10.422017097473145,-0.3059674799442291
1681712766902893312,0.003195890923961997,-0.0053264847956597805,0.0,0.05736890062689781,10.422017097473145,-0.3059674799442291
1681712766902893312,0.003195890923961997,-0.0053264847956597805,0.0,0.05736890062689781,10.422017097473145,-0.3059674799442291
1681712766934831616,0.004261187743395567,-0.010652969591319561,0.0010652969358488917,0.05736890062689781,10.422017097473145,-0.3059674799442291
1681712766966774784,0.003195890923961997,-0.008522375486791134,-0.0021305938716977835,0.05736890062689781,10.402894020080566,-0.3059674799442291
1681712766966774784,0.003195890923961997,-0.008522375486791134,-0.0021305938716977835,0.05736890062689781,10.402894020080566,-0.3059674799442291
1681712767014692864,0.0053264847956597805,-0.006391781847923994,-0.0021305938716977835,0.05736890062689781,10.422017097473145,-0.3059674799442291
1681712767046637056,0.0021305938716977835,-0.009587672539055347,0.0010652969358488917,0.05736890062689781,10.422017097473145,-0.3059674799442291
1681712767046637056,0.004261187743395567,-0.0053264847956597805,0.003195890923961997,0.05736890062689781,10.422017097473145,-0.3059674799442291
1681712767078580224,0.003195890923961997,-0.010652969591319561,0.0,0.05736890062689781,10.383770942687988,-0.3059674799442291
1681712767110517504,0.003195890923961997,-0.006391781847923994,0.003195890923961997,0.05736890062689781,10.402894020080566,-0.3250904381275177
1681712767110517504,0.003195890923961997,-0.006391781847923994,0.003195890923961997,0.05736890062689781,10.402894020080566,-0.3250904381275177
1681712767142456320,0.0021305938716977835,-0.006391781847923994,0.0021305938716977835,0.05736890062689781,10.383770942687988,-0.3059674799442291
1681712767174396416,0.0053264847956597805,-0.007457078900188208,0.0021305938716977835,0.05736890062689781,10.422017097473145,-0.3059674799442291
1681712767174396416,0.0053264847956597805,-0.007457078900188208,0.0021305938716977835,0.05736890062689781,10.422017097473145,-0.3059674799442291
1681712767206336256,0.0021305938716977835,-0.006391781847923994,0.0021305938716977835,0.03824593499302864,10.402894020080566,-0.3059674799442291
1681712767238274816,0.0021305938716977835,-0.006391781847923994,0.0021305938716977835,0.05736890062689781,10.402894020080566,-0.3059674799442291
1681712767238274816,0.0053264847956597805,-0.006391781847923994,-0.0010652969358488917,0.05736890062689781,10.402894020080566,-0.3059674799442291
1681712767270214144,0.0021305938716977835,-0.009587672539055347,-0.0021305938716977835,0.05736890062689781,10.402894020080566,-0.3059674799442291
1681712767302155776,0.0021305938716977835,-0.003195890923961997,0.0010652969358488917,0.07649186998605728,10.383770942687988,-0.3059674799442291
1681712767302155776,0.0021305938716977835,-0.009587672539055347,0.003195890923961997,0.07649186998605728,10.383770942687988,-0.3059674799442291
1681712767334337280,0.003195890923961997,-0.010652969591319561,0.0021305938716977835,0.05736890062689781,10.402894020080566,-0.3250904381275177
1681712767366280960,0.0010652969358488917,-0.007457078900188208,0.0053264847956597805,0.07649186998605728,10.422017097473145,-0.3059674799442291
1681712767382252032,0.0010652969358488917,-0.007457078900188208,0.0053264847956597805,0.05736890062689781,10.402894020080566,-0.3059674799442291
1681712767414189056,0.004261187743395567,-0.007457078900188208,0.0021305938716977835,0.05736890062689781,10.402894020080566,-0.28684452176094055
1681712767446126592,0.003195890923961997,-0.009587672539055347,0.0010652969358488917,0.05736890062689781,10.422017097473145,-0.3059674799442291
1681712767446126592,0.003195890923961997,-0.009587672539055347,0.0010652969358488917,0.05736890062689781,10.422017097473145,-0.3059674799442291
1681712767478065664,0.006391781847923994,-0.006391781847923994,0.0010652969358488917,0.05736890062689781,10.402894020080566,-0.3059674799442291
1681712767510002944,0.003195890923961997,-0.004261187743395567,0.0021305938716977835,0.05736890062689781,10.402894020080566,-0.3059674799442291
1681712767510002944,0.0053264847956597805,-0.009587672539055347,-0.0010652969358488917,0.05736890062689781,10.402894020080566,-0.3059674799442291
1681712767541940480,0.003195890923961997,-0.0053264847956597805,0.0,0.07649186998605728,10.422017097473145,-0.3250904381275177
1681712767573878784,0.006391781847923994,-0.009587672539055347,0.0010652969358488917,0.05736890062689781,10.422017097473145,-0.3059674799442291
1681712767573878784,0.006391781847923994,-0.009587672539055347,0.0010652969358488917,0.05736890062689781,10.422017097473145,-0.3059674799442291
1681712767605813504,0.0053264847956597805,-0.007457078900188208,-0.0010652969358488917,0.07649186998605728,10.402894020080566,-0.3059674799442291
1681712767637749248,0.003195890923961997,-0.004261187743395567,0.0,0.07649186998605728,10.402894020080566,-0.3059674799442291
1681712767637749248,0.003195890923961997,-0.004261187743395567,0.0,0.07649186998605728,10.402894020080566,-0.3059674799442291
1681712767669687552,0.0053264847956597805,-0.007457078900188208,0.0,0.05736890062689781,10.402894020080566,-0.3059674799442291
1681712767701626368,0.0053264847956597805,-0.004261187743395567,0.0021305938716977835,0.07649186998605728,10.402894020080566,-0.3059674799442291
1681712767701626368,0.003195890923961997,-0.007457078900188208,0.0,0.07649186998605728,10.402894020080566,-0.3059674799442291
1681712767733559808,0.003195890923961997,-0.009587672539055347,-0.0021305938716977835,0.05736890062689781,10.402894020080566,-0.3059674799442291
1681712767765494784,0.003195890923961997,-0.007457078900188208,-0.0010652969358488917,0.07649186998605728,10.402894020080566,-0.28684452176094055
1681712767781463296,0.003195890923961997,-0.007457078900188208,-0.0010652969358488917,0.05736890062689781,10.383770942687988,-0.3059674799442291
1681712767813400576,-0.0010652969358488917,-0.004261187743395567,-0.0021305938716977835,0.07649186998605728,10.402894020080566,-0.28684452176094055
1681712767845550848,0.004261187743395567,-0.007457078900188208,0.0010652969358488917,0.07649186998605728,10.402894020080566,-0.3250904381275177
1681712767845550848,0.004261187743395567,-0.007457078900188208,0.0010652969358488917,0.07649186998605728,10.402894020080566,-0.3250904381275177
1681712767877494528,0.003195890923961997,-0.006391781847923994,0.0,0.05736890062689781,10.402894020080566,-0.3250904381275177
1681712767909433856,0.003195890923961997,-0.0053264847956597805,-0.0010652969358488917,0.07649186998605728,10.402894020080566,-0.3059674799442291
1681712767909433856,0.003195890923961997,-0.009587672539055347,0.0021305938716977835,0.07649186998605728,10.402894020080566,-0.3059674799442291
1681712767941372672,0.0021305938716977835,-0.007457078900188208,0.0021305938716977835,0.05736890062689781,10.402894020080566,-0.3059674799442291
1681712767973313792,0.0021305938716977835,-0.006391781847923994,0.0021305938716977835,0.05736890062689781,10.402894020080566,-0.3059674799442291
1681712767973313792,0.0021305938716977835,-0.006391781847923994,0.0021305938716977835,0.05736890062689781,10.402894020080566,-0.3059674799442291
1681712768005255424,0.003195890923961997,-0.0053264847956597805,0.0021305938716977835,0.05736890062689781,10.422017097473145,-0.3059674799442291
1681712768037191680,0.003195890923961997,-0.0053264847956597805,0.0021305938716977835,0.05736890062689781,10.422017097473145,-0.3059674799442291
1681712768037191680,0.003195890923961997,-0.0053264847956597805,0.0021305938716977835,0.05736890062689781,10.422017097473145,-0.3059674799442291
1681712768069129216,0.0010652969358488917,-0.006391781847923994,0.0,0.07649186998605728,10.402894020080566,-0.3059674799442291
1681712768101067776,0.004261187743395567,-0.003195890923961997,0.0,0.05736890062689781,10.402894020080566,-0.3059674799442291
1681712768101067776,0.0021305938716977835,-0.006391781847923994,-0.0021305938716977835,0.05736890062689781,10.402894020080566,-0.3059674799442291
1681712768148977920,0.006391781847923994,-0.0053264847956597805,0.0010652969358488917,0.05736890062689781,10.383770942687988,-0.3059674799442291
1681712768180916736,0.004261187743395567,-0.008522375486791134,0.0010652969358488917,0.05736890062689781,10.402894020080566,-0.3059674799442291
1681712768180916736,0.007457078900188208,-0.004261187743395567,0.0010652969358488917,0.05736890062689781,10.402894020080566,-0.3059674799442291
1681712768212859136,0.0053264847956597805,-0.006391781847923994,-0.004261187743395567,0.07649186998605728,10.422017097473145,-0.3059674799442291
1681712768244798976,0.003195890923961997,-0.006391781847923994,0.0,0.07649186998605728,10.402894020080566,-0.3059674799442291
1681712768244798976,0.003195890923961997,-0.006391781847923994,0.0,0.07649186998605728,10.402894020080566,-0.3059674799442291
1681712768276739072,0.0021305938716977835,-0.008522375486791134,-0.0010652969358488917,0.05736890062689781,10.402894020080566,-0.3059674799442291
1681712768308681728,0.0010652969358488917,-0.007457078900188208,0.0053264847956597805,0.05736890062689781,10.422017097473145,-0.3059674799442291
1681712768308681728,0.0010652969358488917,-0.007457078900188208,0.0053264847956597805,0.05736890062689781,10.422017097473145,-0.3059674799442291
1681712768340846592,0.004261187743395567,-0.004261187743395567,0.0,0.07649186998605728,10.402894020080566,-0.3059674799442291
1681712768372791808,0.0053264847956597805,-0.0053264847956597805,0.0010652969358488917,0.07649186998605728,10.422017097473145,-0.3059674799442291
1681712768372791808,0.0053264847956597805,-0.010652969591319561,0.0010652969358488917,0.07649186998605728,10.422017097473145,-0.3059674799442291
1681712768404732672,0.004261187743395567,-0.008522375486791134,0.0021305938716977835,0.07649186998605728,10.422017097473145,-0.3059674799442291
1681712768436673792,0.0010652969358488917,-0.007457078900188208,0.004261187743395567,0.05736890062689781,10.422017097473145,-0.3059674799442291
1681712768436673792,0.0010652969358488917,-0.007457078900188208,0.004261187743395567,0.05736890062689781,10.422017097473145,-0.3059674799442291
1681712768468616448,0.004261187743395567,-0.006391781847923994,0.0010652969358488917,0.05736890062689781,10.383770942687988,-0.3059674799442291
1681712768500553984,0.006391781847923994,-0.004261187743395567,0.0010652969358488917,0.05736890062689781,10.402894020080566,-0.3059674799442291
1681712768500553984,0.006391781847923994,-0.004261187743395567,0.0010652969358488917,0.05736890062689781,10.402894020080566,-0.3059674799442291
1681712768548464128,0.004261187743395567,-0.009587672539055347,-0.0021305938716977835,0.05736890062689781,10.402894020080566,-0.3059674799442291
1681712768580400128,0.004261187743395567,-0.006391781847923994,0.003195890923961997,0.05736890062689781,10.402894020080566,-0.28684452176094055
1681712768580400128,0.003195890923961997,-0.004261187743395567,0.0021305938716977835,0.05736890062689781,10.402894020080566,-0.28684452176094055
1681712768612337408,0.004261187743395567,-0.006391781847923994,0.0010652969358488917,0.05736890062689781,10.402894020080566,-0.3059674799442291
1681712768644272640,0.004261187743395567,-0.004261187743395567,0.003195890923961997,0.07649186998605728,10.402894020080566,-0.3250904381275177
1681712768644272640,0.004261187743395567,-0.004261187743395567,0.003195890923961997,0.07649186998605728,10.402894020080566,-0.3250904381275177
1681712768676204032,0.004261187743395567,-0.007457078900188208,0.0010652969358488917,0.07649186998605728,10.402894020080566,-0.3059674799442291
1681712768708141568,0.004261187743395567,-0.003195890923961997,0.0021305938716977835,0.05736890062689781,10.422017097473145,-0.3250904381275177
1681712768708141568,0.004261187743395567,-0.003195890923961997,0.0021305938716977835,0.05736890062689781,10.422017097473145,-0.3250904381275177
1681712768740078080,0.003195890923961997,-0.006391781847923994,-0.003195890923961997,0.05736890062689781,10.402894020080566,-0.3059674799442291
1681712768772016640,0.003195890923961997,-0.009587672539055347,0.0010652969358488917,0.05736890062689781,10.402894020080566,-0.3059674799442291
1681712768772016640,0.003195890923961997,-0.004261187743395567,0.003195890923961997,0.05736890062689781,10.402894020080566,-0.3059674799442291
1681712768803955200,0.003195890923961997,-0.0053264847956597805,0.004261187743395567,0.05736890062689781,10.402894020080566,-0.3059674799442291
1681712768836180480,0.006391781847923994,-0.006391781847923994,0.0010652969358488917,0.05736890062689781,10.383770942687988,-0.3059674799442291
1681712768836180480,0.006391781847923994,-0.006391781847923994,0.0010652969358488917,0.05736890062689781,10.383770942687988,-0.3059674799442291
1681712768868120064,0.004261187743395567,-0.007457078900188208,-0.0010652969358488917,0.05736890062689781,10.422017097473145,-0.3059674799442291
1681712768900059136,0.003195890923961997,-0.003195890923961997,0.0,0.05736890062689781,10.402894020080566,-0.28684452176094055
1681712768916029952,0.003195890923961997,-0.003195890923961997,0.0,0.05736890062689781,10.402894020080566,-0.3059674799442291
1681712768947968768,0.006391781847923994,-0.010652969591319561,-0.0021305938716977835,0.05736890062689781,10.402894020080566,-0.28684452176094055
1681712768979905280,0.003195890923961997,-0.006391781847923994,0.0,0.05736890062689781,10.402894020080566,-0.3059674799442291
1681712768979905280,0.003195890923961997,-0.007457078900188208,0.0021305938716977835,0.05736890062689781,10.402894020080566,-0.3059674799442291
1681712769011845376,0.004261187743395567,-0.003195890923961997,0.0010652969358488917,0.07649186998605728,10.402894020080566,-0.3250904381275177
1681712769043785472,0.004261187743395567,-0.006391781847923994,0.0021305938716977835,0.05736890062689781,10.422017097473145,-0.3059674799442291
1681712769043785472,0.004261187743395567,-0.006391781847923994,0.0021305938716977835,0.05736890062689781,10.422017097473145,-0.3059674799442291
1681712769075723520,0.003195890923961997,-0.006391781847923994,0.0021305938716977835,0.07649186998605728,10.402894020080566,-0.3059674799442291
1681712769107663104,0.003195890923961997,-0.007457078900188208,-0.0021305938716977835,0.05736890062689781,10.422017097473145,-0.3059674799442291
1681712769107663104,0.003195890923961997,-0.007457078900188208,-0.0021305938716977835,0.05736890062689781,10.422017097473145,-0.3059674799442291
1681712769139601664,0.004261187743395567,-0.007457078900188208,0.0010652969358488917,0.05736890062689781,10.402894020080566,-0.3059674799442291
1681712769171542528,0.0021305938716977835,-0.007457078900188208,0.0021305938716977835,0.05736890062689781,10.402894020080566,-0.3059674799442291
1681712769171542528,0.0053264847956597805,-0.0053264847956597805,0.0,0.05736890062689781,10.402894020080566,-0.3059674799442291
1681712769203488768,0.004261187743395567,-0.0021305938716977835,-0.0010652969358488917,0.05736890062689781,10.402894020080566,-0.28684452176094055
1681712769235428096,0.0053264847956597805,-0.007457078900188208,0.003195890923961997,0.05736890062689781,10.402894020080566,-0.28684452176094055
1681712769235428096,0.0010652969358488917,-0.004261187743395567,0.0021305938716977835,0.05736890062689781,10.402894020080566,-0.28684452176094055
1681712769283334400,0.0,-0.011718266643583775,0.0010652969358488917,0.05736890062689781,10.422017097473145,-0.3059674799442291
1681712769299305216,0.0021305938716977835,-0.009587672539055347,-0.003195890923961997,0.07649186998605728,10.402894020080566,-0.3059674799442291
1681712769315273984,0.0021305938716977835,-0.009587672539055347,-0.003195890923961997,0.05736890062689781,10.402894020080566,-0.28684452176094055
1681712769347398144,0.0053264847956597805,-0.006391781847923994,0.0021305938716977835,0.05736890062689781,10.422017097473145,-0.28684452176094055
1681712769379335936,0.006391781847923994,-0.0053264847956597805,0.0021305938716977835,0.07649186998605728,10.402894020080566,-0.3059674799442291
1681712769379335936,0.006391781847923994,-0.0053264847956597805,0.0021305938716977835,0.07649186998605728,10.402894020080566,-0.3059674799442291
1681712769411272704,0.006391781847923994,-0.009587672539055347,0.0010652969358488917,0.05736890062689781,10.402894020080566,-0.3059674799442291
1681712769443211264,0.003195890923961997,-0.006391781847923994,0.0,0.05736890062689781,10.402894020080566,-0.3059674799442291
1681712769443211264,0.003195890923961997,-0.006391781847923994,-0.0010652969358488917,0.05736890062689781,10.402894020080566,-0.3059674799442291
1681712769475152128,0.0010652969358488917,-0.008522375486791134,0.0021305938716977835,0.05736890062689781,10.402894020080566,-0.3059674799442291
1681712769507088384,0.0021305938716977835,-0.0053264847956597805,-0.0021305938716977835,0.05736890062689781,10.422017097473145,-0.3059674799442291
1681712769507088384,0.0021305938716977835,-0.0053264847956597805,-0.0021305938716977835,0.05736890062689781,10.422017097473145,-0.3059674799442291
1681712769539024384,0.0021305938716977835,-0.0053264847956597805,0.003195890923961997,0.05736890062689781,10.402894020080566,-0.3059674799442291
1681712769570961664,0.0021305938716977835,-0.009587672539055347,-0.0010652969358488917,0.05736890062689781,10.422017097473145,-0.3059674799442291
1681712769570961664,0.0021305938716977835,-0.009587672539055347,-0.0010652969358488917,0.05736890062689781,10.422017097473145,-0.3059674799442291
1681712769602900480,0.0,-0.006391781847923994,0.003195890923961997,0.05736890062689781,10.422017097473145,-0.28684452176094055
1681712769634840064,0.004261187743395567,-0.0053264847956597805,0.0021305938716977835,0.05736890062689781,10.402894020080566,-0.3059674799442291
1681712769634840064,0.0053264847956597805,-0.006391781847923994,0.0,0.05736890062689781,10.402894020080566,-0.3059674799442291
1681712769682751232,0.0021305938716977835,-0.006391781847923994,0.0,0.05736890062689781,10.422017097473145,-0.28684452176094055
1681712769714688256,0.0053264847956597805,-0.008522375486791134,0.0,0.05736890062689781,10.402894020080566,-0.28684452176094055
1681712769714688256,0.0053264847956597805,-0.008522375486791134,0.0,0.05736890062689781,10.402894020080566,-0.28684452176094055
1681712769746628608,0.0053264847956597805,-0.004261187743395567,0.0010652969358488917,0.07649186998605728,10.402894020080566,-0.3059674799442291
1681712769778569472,0.004261187743395567,-0.009587672539055347,0.0053264847956597805,0.05736890062689781,10.402894020080566,-0.3059674799442291
1681712769778569472,0.004261187743395567,-0.009587672539055347,0.0053264847956597805,0.05736890062689781,10.402894020080566,-0.3059674799442291
1681712769810505472,0.004261187743395567,-0.007457078900188208,-0.0010652969358488917,0.05736890062689781,10.402894020080566,-0.3250904381275177
1681712769842718208,0.0021305938716977835,-0.004261187743395567,0.006391781847923994,0.05736890062689781,10.402894020080566,-0.3250904381275177
1681712769842718208,0.0021305938716977835,-0.007457078900188208,-0.0010652969358488917,0.05736890062689781,10.402894020080566,-0.3250904381275177
1681712769874652672,0.003195890923961997,-0.004261187743395567,0.0,0.05736890062689781,10.402894020080566,-0.3059674799442291
1681712769906588416,0.0053264847956597805,-0.006391781847923994,-0.0010652969358488917,0.05736890062689781,10.402894020080566,-0.3059674799442291
1681712769906588416,0.0053264847956597805,-0.006391781847923994,-0.0010652969358488917,0.05736890062689781,10.402894020080566,-0.3059674799442291
1681712769938522624,0.0053264847956597805,-0.004261187743395567,-0.0021305938716977835,0.05736890062689781,10.402894020080566,-0.3059674799442291
1681712769970459904,0.006391781847923994,-0.0053264847956597805,0.0010652969358488917,0.05736890062689781,10.422017097473145,-0.3059674799442291
1681712769970459904,0.006391781847923994,-0.0053264847956597805,0.0010652969358488917,0.05736890062689781,10.422017097473145,-0.3059674799442291
1681712770002398208,0.006391781847923994,-0.0053264847956597805,-0.003195890923961997,0.07649186998605728,10.402894020080566,-0.3059674799442291
1681712770034331136,0.0010652969358488917,-0.0053264847956597805,0.0010652969358488917,0.05736890062689781,10.422017097473145,-0.3059674799442291
1681712770050299904,0.0053264847956597805,-0.0053264847956597805,-0.0010652969358488917,0.05736890062689781,10.422017097473145,-0.3250904381275177
1681712770082233600,0.003195890923961997,-0.006391781847923994,0.004261187743395567,0.05736890062689781,10.383770942687988,-0.3059674799442291
1681712770114168832,0.003195890923961997,-0.008522375486791134,0.0010652969358488917,0.05736890062689781,10.383770942687988,-0.28684452176094055
1681712770114168832,0.003195890923961997,-0.008522375486791134,0.0010652969358488917,0.05736890062689781,10.383770942687988,-0.28684452176094055
1681712770146101504,0.0021305938716977835,-0.009587672539055347,0.0021305938716977835,0.03824593499302864,10.441140174865723,-0.3059674799442291
1681712770178034944,0.004261187743395567,-0.009587672539055347,-0.0021305938716977835,0.05736890062689781,10.402894020080566,-0.28684452176094055
1681712770178034944,0.004261187743395567,-0.009587672539055347,-0.0021305938716977835,0.05736890062689781,10.402894020080566,-0.28684452176094055
1681712770209965824,0.006391781847923994,-0.0053264847956597805,0.003195890923961997,0.07649186998605728,10.402894020080566,-0.3059674799442291
1681712770241898496,0.003195890923961997,-0.008522375486791134,0.0010652969358488917,0.05736890062689781,10.422017097473145,-0.3059674799442291
1681712770241898496,0.003195890923961997,-0.008522375486791134,0.0010652969358488917,0.05736890062689781,10.422017097473145,-0.3059674799442291
1681712770273836800,0.007457078900188208,-0.004261187743395567,0.0021305938716977835,0.05736890062689781,10.402894020080566,-0.3059674799442291
1681712770305770240,0.004261187743395567,-0.0053264847956597805,-0.003195890923961997,0.05736890062689781,10.402894020080566,-0.3250904381275177
1681712770305770240,0.004261187743395567,-0.009587672539055347,0.0021305938716977835,0.05736890062689781,10.402894020080566,-0.3250904381275177
1681712770337923072,0.006391781847923994,-0.004261187743395567,0.0010652969358488917,0.05736890062689781,10.422017097473145,-0.28684452176094055
1681712770369867008,0.006391781847923994,-0.008522375486791134,-0.0021305938716977835,0.05736890062689781,10.402894020080566,-0.3059674799442291
1681712770369867008,0.006391781847923994,-0.008522375486791134,-0.0021305938716977835,0.05736890062689781,10.402894020080566,-0.3059674799442291
1681712770401801984,0.003195890923961997,-0.008522375486791134,0.0,0.07649186998605728,10.402894020080566,-0.28684452176094055
1681712770433741056,0.0053264847956597805,-0.007457078900188208,0.004261187743395567,0.05736890062689781,10.422017097473145,-0.3059674799442291
1681712770449710336,0.0053264847956597805,-0.007457078900188208,0.004261187743395567,0.05736890062689781,10.422017097473145,-0.3059674799442291
1681712770481649664,0.0010652969358488917,-0.012783563695847988,0.004261187743395567,0.05736890062689781,10.402894020080566,-0.28684452176094055
