#timestamp [ns],gyro_x,gyro_y,gyro_z,accel_x,accel_y,accel_z
1681363049063439872,0.0010652969358488917,-0.006391781847923994,0.0010652969358488917,-0.07649186998605728,10.422017097473145,-0.24859857559204102
1681363049063439872,0.0010652969358488917,-0.006391781847923994,0.0010652969358488917,-0.07649186998605728,10.422017097473145,-0.24859857559204102
1681363049095369472,0.007457078900188208,-0.007457078900188208,-0.0021305938716977835,-0.03824593499302864,10.383770942687988,-0.21035264432430267
1681363049127297280,0.0021305938716977835,-0.003195890923961997,-0.0021305938716977835,0.0,10.402894020080566,-0.28684452176094055
1681363049159220480,0.0010652969358488917,-0.004261187743395567,-0.010652969591319561,-0.01912296749651432,10.402894020080566,-0.21035264432430267
1681363049159220480,0.004261187743395567,-0.010652969591319561,-0.007457078900188208,-0.01912296749651432,10.402894020080566,-0.21035264432430267
1681363049191149056,0.0010652969358488917,-0.0053264847956597805,-0.004261187743395567,-0.07649186998605728,10.402894020080566,-0.28684452176094055
1681363049223078656,0.003195890923961997,-0.004261187743395567,-0.004261187743395567,-0.07649186998605728,10.383770942687988,-0.17210669815540314
1681363049223078656,0.003195890923961997,-0.004261187743395567,-0.004261187743395567,-0.07649186998605728,10.383770942687988,-0.17210669815540314
1681363049255006208,0.0010652969358488917,-0.0010652969358488917,0.0021305938716977835,-0.03824593499302864,10.402894020080566,-0.21035264432430267
1681363049286934272,0.0010652969358488917,-0.0053264847956597805,-0.0010652969358488917,0.0,10.383770942687988,-0.1912296712398529
1681363049286934272,0.0010652969358488917,-0.0053264847956597805,-0.0010652969358488917,0.0,10.383770942687988,-0.1912296712398529
1681363049318866176,0.0053264847956597805,-0.0010652969358488917,0.003195890923961997,-0.05736890062689781,10.383770942687988,-0.22947560250759125
1681363049350794240,0.0053264847956597805,-0.008522375486791134,0.008522375486791134,-0.05736890062689781,10.441140174865723,-0.28684452176094055
1681363049350794240,0.0010652969358488917,0.0,0.011718266643583775,-0.05736890062689781,10.441140174865723,-0.28684452176094055
1681363049398685952,0.008522375486791134,-0.007457078900188208,-0.07776667922735214,0.09561483561992645,10.383770942687988,-0.15298373997211456
1681363049430614784,0.011718266643583775,-0.0021305938716977835,-0.021305939182639122,-0.4398282468318939,10.345525741577148,-0.1912296712398529
1681363049430614784,0.011718266643583775,-0.0021305938716977835,-0.021305939182639122,-0.4398282468318939,10.345525741577148,-0.1912296712398529
1681363049462543104,-0.006391781847923994,-0.03195890784263611,0.02343653328716755,-0.3059674799442291,10.441140174865723,-0.24859857559204102
1681363049494208512,0.014914157800376415,-0.024501828476786613,0.010652969591319561,-0.22947560250759125,10.32640266418457,-0.07649186998605728
1681363049526140160,-0.0053264847956597805,0.0021305938716977835,0.0468730665743351,-0.15298373997211456,10.517632484436035,-0.3250904381275177
1681363049526140160,-0.0053264847956597805,0.0021305938716977835,0.0468730665743351,-0.15298373997211456,10.517632484436035,-0.3250904381275177
1681363049558065664,0.010652969591319561,-0.010652969591319561,0.022371236234903336,0.133860781788826,10.288155555725098,0.0
1681363049589996288,0.007457078900188208,-0.009587672539055347,0.0021305938716977835,0.11473780125379562,10.460262298583984,-0.24859857559204102
1681363049589996288,0.007457078900188208,-0.009587672539055347,0.0021305938716977835,0.11473780125379562,10.460262298583984,-0.24859857559204102
1681363049621932800,0.006391781847923994,0.0021305938716977835,0.0010652969358488917,-0.01912296749651432,10.383770942687988,-0.15298373997211456
1681363049653868800,0.003195890923961997,-0.009587672539055347,-0.0010652969358488917,-0.11473780125379562,10.422017097473145,-0.267721563577652
1681363049653868800,0.007457078900188208,-0.011718266643583775,0.0010652969358488917,-0.11473780125379562,10.422017097473145,-0.267721563577652
1681363049685797376,-0.0021305938716977835,-0.011718266643583775,0.0053264847956597805,0.0,10.422017097473145,-0.3250904381275177
1681363049717728000,0.0,0.0,-0.027697719633579254,0.09561483561992645,10.383770942687988,-0.3059674799442291
1681363049717728000,0.0,0.0,-0.027697719633579254,0.09561483561992645,10.383770942687988,-0.3059674799442291
1681363049749662208,-0.0010652969358488917,-0.013848859816789627,-0.027697719633579254,-0.01912296749651432,10.422017097473145,-0.22947560250759125
1681363049781592576,-0.0053264847956597805,-0.013848859816789627,-0.01811004802584648,-0.01912296749651432,10.364648818969727,-0.22947560250759125
1681363049797557760,-0.0053264847956597805,-0.013848859816789627,-0.01811004802584648,-0.05736890062689781,10.422017097473145,-0.22947560250759125
1681363049829494016,0.004261187743395567,-0.0053264847956597805,-0.013848859816789627,-0.3250904381275177,10.402894020080566,-0.15298373997211456
1681363049861428992,0.0021305938716977835,-0.004261187743395567,0.027697719633579254,-0.28684452176094055,10.383770942687988,-0.21035264432430267
1681363049861428992,0.003195890923961997,-0.011718266643583775,0.03728539124131203,-0.28684452176094055,10.383770942687988,-0.21035264432430267
1681363049893360640,0.0010652969358488917,-0.010652969591319561,0.02024064213037491,0.05736890062689781,10.441140174865723,-0.133860781788826
1681363049925295872,0.004261187743395567,-0.008522375486791134,-0.012783563695847988,0.15298373997211456,10.32640266418457,-0.24859857559204102
1681363049925295872,0.004261187743395567,-0.008522375486791134,-0.012783563695847988,0.15298373997211456,10.32640266418457,-0.24859857559204102
1681363049957229568,0.0010652969358488917,-0.011718266643583775,-0.028763018548488617,0.15298373997211456,10.441140174865723,-0.21035264432430267
1681363049989152256,0.006391781847923994,-0.003195890923961997,-0.04793836548924446,-0.17210669815540314,10.345525741577148,-0.09561483561992645
1681363050021088512,-0.012783563695847988,-0.022371236234903336,0.02343653328716755,-0.22947560250759125,10.192541122436523,-0.535443127155304
1681363050021088512,-0.021305939182639122,-0.03835069015622139,0.03302420303225517,-0.22947560250759125,10.192541122436523,-0.535443127155304
1681363050053024512,-0.0053264847956597805,-0.04367717355489731,-0.054330144077539444,0.49719715118408203,10.594123840332031,-0.267721563577652
1681363050084955392,-0.0021305938716977835,0.0010652969358488917,-0.16725163161754608,0.11473780125379562,10.32640266418457,-0.28684452176094055
1681363050084955392,-0.0021305938716977835,0.0010652969358488917,-0.16725163161754608,0.11473780125379562,10.32640266418457,-0.28684452176094055
1681363050116890368,-0.003195890923961997,-0.011718266643583775,-0.025567127391695976,-0.7649186849594116,10.422017097473145,-0.11473780125379562
1681363050148824064,0.004261187743395567,-0.021305939182639122,0.03302420303225517,-0.42070528864860535,10.307279586791992,-0.01912296749651432
1681363050164787968,0.006391781847923994,-0.014914157800376415,0.03728539124131203,-0.4015823304653168,10.441140174865723,0.01912296749651432
1681363050196721152,0.022371236234903336,0.014914157800376415,0.05646073818206787,-0.5545660853385925,10.422017097473145,-0.15298373997211456
1681363050228652032,-0.004261187743395567,0.0021305938716977835,0.07137490063905716,0.17210669815540314,10.383770942687988,-0.3250904381275177
1681363050228652032,-0.003195890923961997,-0.004261187743395567,0.06817900389432907,0.17210669815540314,10.383770942687988,-0.3250904381275177
1681363050260584960,0.014914157800376415,-0.01811004802584648,0.004261187743395567,0.4015823304653168,10.402894020080566,-0.15298373997211456
1681363050292517120,-0.0053264847956597805,0.010652969591319561,-0.03835069015622139,0.11473780125379562,10.364648818969727,-0.535443127155304
1681363050292517120,-0.0053264847956597805,0.010652969591319561,-0.03835069015622139,0.11473780125379562,10.364648818969727,-0.535443127155304
1681363050324450560,0.0021305938716977835,-0.017044750973582268,-0.04474247246980667,-0.1912296712398529,10.479385375976562,-0.11473780125379562
1681363050356384000,-0.0053264847956597805,-0.03302420303225517,-0.042611878365278244,-0.09561483561992645,10.249910354614258,-0.3442133963108063
1681363050356384000,-0.0053264847956597805,-0.03302420303225517,-0.042611878365278244,-0.09561483561992645,10.249910354614258,-0.3442133963108063
1681363050388318208,-0.0053264847956597805,-0.012783563695847988,-0.027697719633579254,-0.133860781788826,10.517632484436035,-0.24859857559204102
1681363050420250112,0.004261187743395567,0.004261187743395567,-0.024501828476786613,-0.28684452176094055,10.32640266418457,-0.11473780125379562
1681363050420250112,0.006391781847923994,0.003195890923961997,-0.03302420303225517,-0.28684452176094055,10.32640266418457,-0.11473780125379562
1681363050452180480,-0.003195890923961997,-0.003195890923961997,0.0053264847956597805,-0.5545660853385925,10.498509407043457,-0.05736890062689781
1681363050484156672,0.012783563695847988,-0.004261187743395567,0.0468730665743351,-0.36333635449409485,10.345525741577148,0.09561483561992645
1681363050516093696,0.012783563695847988,0.022371236234903336,0.06711370497941971,-0.24859857559204102,10.383770942687988,-0.05736890062689781
1681363050532059904,0.013848859816789627,0.02663242444396019,0.06817900389432907,-0.3059674799442291,10.460262298583984,-0.01912296749651432
1681363050563996160,0.027697719633579254,0.027697719633579254,0.12250914424657822,-0.4015823304653168,10.345525741577148,-0.15298373997211456
1681363050595935232,0.008522375486791134,-0.009587672539055347,0.08948494493961334,0.4015823304653168,10.422017097473145,-0.5545660853385925
1681363050595935232,0.008522375486791134,-0.009587672539055347,0.08948494493961334,0.4015823304653168,10.422017097473145,-0.5545660853385925
1681363050627873024,0.0053264847956597805,-0.009587672539055347,-0.003195890923961997,0.4589512050151825,10.345525741577148,-0.4589512050151825
1681363050659810304,-0.008522375486791134,0.006391781847923994,-0.0585913322865963,0.3824593424797058,10.402894020080566,-0.535443127155304
1681363050659810304,-0.008522375486791134,0.006391781847923994,-0.0585913322865963,0.3824593424797058,10.402894020080566,-0.535443127155304
1681363050691745280,0.003195890923961997,-0.011718266643583775,-0.054330144077539444,-0.3250904381275177,10.422017097473145,-0.03824593499302864
1681363050723677440,-0.0021305938716977835,-0.021305939182639122,0.02024064213037491,-0.8031646609306335,10.364648818969727,-0.11473780125379562
1681363050723677440,0.004261187743395567,-0.015979453921318054,0.039415985345840454,-0.8031646609306335,10.364648818969727,-0.11473780125379562
1681363050755610368,0.003195890923961997,-0.013848859816789627,0.09481143206357956,-0.42070528864860535,10.479385375976562,-0.07649186998605728
1681363050787538176,0.0053264847956597805,-0.0010652969358488917,0.0021305938716977835,0.42070528864860535,10.364648818969727,-0.11473780125379562
1681363050787538176,0.0053264847956597805,-0.0010652969358488917,0.0021305938716977835,0.42070528864860535,10.364648818969727,-0.11473780125379562
1681363050819467008,0.008522375486791134,0.0021305938716977835,0.030893610790371895,0.22947560250759125,10.307279586791992,-0.21035264432430267
1681363050851397888,-0.0010652969358488917,-0.011718266643583775,-0.03622009605169296,0.22947560250759125,10.479385375976562,-0.3442133963108063
1681363050851397888,-0.0010652969358488917,-0.011718266643583775,-0.03622009605169296,0.22947560250759125,10.479385375976562,-0.3442133963108063
1681363050883333376,0.0021305938716977835,0.0,-0.054330144077539444,-0.22947560250759125,10.441140174865723,-0.22947560250759125
1681363050915264512,-0.0021305938716977835,0.0,0.02982831560075283,-0.49719715118408203,10.402894020080566,-0.28684452176094055
1681363050931229440,-0.0010652969358488917,-0.0053264847956597805,0.04793836548924446,-0.4589512050151825,10.345525741577148,-0.11473780125379562
1681363050963161600,0.010652969591319561,-0.013848859816789627,0.06604840606451035,-0.07649186998605728,10.402894020080566,-0.22947560250759125
1681363050995047680,-0.0021305938716977835,-0.009587672539055347,0.022371236234903336,0.21035264432430267,10.441140174865723,-0.24859857559204102
1681363050995047680,-0.0021305938716977835,-0.0053264847956597805,0.014914157800376415,0.21035264432430267,10.441140174865723,-0.24859857559204102
1681363051026979072,0.004261187743395567,-0.003195890923961997,-0.019175345078110695,0.22947560250759125,10.345525741577148,-0.22947560250759125
1681363051058904576,0.0021305938716977835,-0.006391781847923994,-0.015979453921318054,-0.07649186998605728,10.422017097473145,-0.1912296712398529
1681363051058904576,0.0021305938716977835,-0.006391781847923994,-0.015979453921318054,-0.07649186998605728,10.422017097473145,-0.1912296712398529
1681363051090834176,0.003195890923961997,-0.006391781847923994,-0.011718266643583775,-0.21035264432430267,10.422017097473145,-0.21035264432430267
1681363051122763520,0.009587672539055347,-0.0053264847956597805,0.028763018548488617,-0.3824593424797058,10.422017097473145,-0.22947560250759125
1681363051122763520,0.009587672539055347,-0.0053264847956597805,0.028763018548488617,-0.3824593424797058,10.422017097473145,-0.22947560250759125
1681363051154691072,-0.0010652969358488917,-0.011718266643583775,0.05326484888792038,-0.05736890062689781,10.422017097473145,-0.3442133963108063
1681363051186622464,0.007457078900188208,-0.004261187743395567,-0.0010652969358488917,0.28684452176094055,10.402894020080566,-0.24859857559204102
1681363051186622464,0.006391781847923994,-0.006391781847923994,-0.011718266643583775,0.28684452176094055,10.402894020080566,-0.24859857559204102
1681363051218555904,0.0,-0.0021305938716977835,-0.03195890784263611,0.21035264432430267,10.422017097473145,-0.22947560250759125
1681363051250491136,0.004261187743395567,-0.006391781847923994,-0.02024064213037491,-0.133860781788826,10.383770942687988,-0.09561483561992645
1681363051250491136,0.004261187743395567,-0.006391781847923994,-0.02024064213037491,-0.133860781788826,10.383770942687988,-0.09561483561992645
1681363051298387200,0.0053264847956597805,-0.004261187743395567,0.008522375486791134,-0.3250904381275177,10.422017097473145,-0.22947560250759125
1681363051314352640,0.008522375486791134,-0.003195890923961997,0.03302420303225517,-0.28684452176094055,10.402894020080566,-0.22947560250759125
1681363051330319360,0.008522375486791134,-0.003195890923961997,0.03302420303225517,-0.11473780125379562,10.402894020080566,-0.267721563577652
1681363051362248960,0.0,-0.012783563695847988,0.004261187743395567,0.22947560250759125,10.422017097473145,-0.267721563577652
1681363051394185216,0.0053264847956597805,-0.007457078900188208,-0.017044750973582268,0.09561483561992645,10.383770942687988,-0.17210669815540314
1681363051394185216,0.007457078900188208,-0.0021305938716977835,-0.019175345078110695,0.09561483561992645,10.383770942687988,-0.17210669815540314
1681363051426121728,0.0,-0.007457078900188208,-0.019175345078110695,-0.11473780125379562,10.441140174865723,-0.22947560250759125
1681363051458053120,0.007457078900188208,-0.009587672539055347,-0.006391781847923994,-0.267721563577652,10.402894020080566,-0.17210669815540314
1681363051458053120,0.007457078900188208,-0.009587672539055347,-0.006391781847923994,-0.267721563577652,10.402894020080566,-0.17210669815540314
1681363051489915904,0.004261187743395567,-0.008522375486791134,0.04793836548924446,-0.28684452176094055,10.383770942687988,-0.267721563577652
1681363051521850112,0.003195890923961997,-0.013848859816789627,0.0351548008620739,0.05736890062689781,10.383770942687988,-0.28684452176094055
1681363051521850112,0.003195890923961997,-0.013848859816789627,0.0351548008620739,0.05736890062689781,10.383770942687988,-0.28684452176094055
1681363051553783808,0.0,-0.007457078900188208,-0.010652969591319561,0.22947560250759125,10.402894020080566,-0.22947560250759125
1681363051585719296,0.003195890923961997,-0.0010652969358488917,-0.021305939182639122,0.07649186998605728,10.402894020080566,-0.22947560250759125
1681363051585719296,-0.0021305938716977835,-0.011718266643583775,-0.024501828476786613,0.07649186998605728,10.402894020080566,-0.22947560250759125
1681363051617651456,0.0010652969358488917,-0.009587672539055347,-0.019175345078110695,-0.07649186998605728,10.402894020080566,-0.133860781788826
1681363051649584128,-0.0021305938716977835,-0.009587672539055347,-0.007457078900188208,-0.22947560250759125,10.422017097473145,-0.22947560250759125
1681363051649584128,-0.0021305938716977835,-0.009587672539055347,-0.007457078900188208,-0.22947560250759125,10.422017097473145,-0.22947560250759125
1681363051697488128,0.006391781847923994,-0.003195890923961997,0.015979453921318054,-0.11473780125379562,10.383770942687988,-0.21035264432430267
1681363051729419520,-0.0010652969358488917,-0.010652969591319561,0.010652969591319561,0.03824593499302864,10.422017097473145,-0.267721563577652
1681363051729419520,-0.0010652969358488917,-0.010652969591319561,0.010652969591319561,0.03824593499302864,10.422017097473145,-0.267721563577652
1681363051761356800,0.004261187743395567,-0.004261187743395567,-0.007457078900188208,0.03824593499302864,10.402894020080566,-0.21035264432430267
1681363051793291520,0.004261187743395567,-0.011718266643583775,-0.0021305938716977835,-0.11473780125379562,10.402894020080566,-0.21035264432430267
1681363051793291520,0.007457078900188208,-0.009587672539055347,-0.004261187743395567,-0.11473780125379562,10.402894020080566,-0.21035264432430267
1681363051825230080,0.0021305938716977835,-0.007457078900188208,0.008522375486791134,-0.133860781788826,10.422017097473145,-0.22947560250759125
1681363051857164288,0.003195890923961997,-0.009587672539055347,0.0021305938716977835,-0.03824593499302864,10.402894020080566,-0.1912296712398529
1681363051857164288,0.004261187743395567,-0.006391781847923994,0.0010652969358488917,-0.03824593499302864,10.402894020080566,-0.1912296712398529
1681363051889093888,0.004261187743395567,-0.008522375486791134,0.0053264847956597805,-0.03824593499302864,10.402894020080566,-0.22947560250759125
1681363051921024768,0.0053264847956597805,-0.006391781847923994,-0.010652969591319561,0.03824593499302864,10.402894020080566,-0.22947560250759125
1681363051921024768,0.0053264847956597805,-0.006391781847923994,-0.010652969591319561,0.03824593499302864,10.402894020080566,-0.22947560250759125
1681363051952954368,0.006391781847923994,0.0,-0.015979453921318054,-0.03824593499302864,10.402894020080566,-0.22947560250759125
1681363051984887040,0.004261187743395567,-0.0053264847956597805,0.006391781847923994,-0.17210669815540314,10.402894020080566,-0.24859857559204102
1681363051984887040,0.004261187743395567,-0.0053264847956597805,0.006391781847923994,-0.17210669815540314,10.402894020080566,-0.24859857559204102
1681363052016819968,0.004261187743395567,-0.006391781847923994,0.007457078900188208,-0.09561483561992645,10.422017097473145,-0.21035264432430267
1681363052048751104,0.004261187743395567,-0.008522375486791134,-0.003195890923961997,0.0,10.402894020080566,-0.21035264432430267
1681363052064718336,0.003195890923961997,-0.0053264847956597805,0.0,-0.01912296749651432,10.402894020080566,-0.1912296712398529
1681363052096649984,0.0021305938716977835,-0.004261187743395567,0.003195890923961997,-0.03824593499302864,10.402894020080566,-0.22947560250759125
1681363052128578816,0.007457078900188208,-0.006391781847923994,0.003195890923961997,-0.09561483561992645,10.402894020080566,-0.22947560250759125
1681363052128578816,0.007457078900188208,-0.006391781847923994,0.003195890923961997,-0.09561483561992645,10.402894020080566,-0.22947560250759125
1681363052160507136,0.0,-0.004261187743395567,-0.0010652969358488917,-0.09561483561992645,10.402894020080566,-0.24859857559204102
1681363052192435712,0.004261187743395567,-0.009587672539055347,0.0021305938716977835,-0.01912296749651432,10.383770942687988,-0.22947560250759125
1681363052192435712,0.004261187743395567,-0.009587672539055347,0.0021305938716977835,-0.01912296749651432,10.383770942687988,-0.22947560250759125
1681363052224359168,0.004261187743395567,-0.008522375486791134,-0.0021305938716977835,-0.01912296749651432,10.402894020080566,-0.24859857559204102
1681363052256284160,0.0053264847956597805,-0.007457078900188208,-0.003195890923961997,-0.05736890062689781,10.402894020080566,-0.21035264432430267
1681363052256284160,0.0053264847956597805,-0.006391781847923994,-0.003195890923961997,-0.05736890062689781,10.402894020080566,-0.21035264432430267
1681363052288208384,0.004261187743395567,-0.0053264847956597805,-0.0021305938716977835,-0.09561483561992645,10.402894020080566,-0.21035264432430267
1681363052320137984,0.0010652969358488917,-0.011718266643583775,0.0021305938716977835,-0.05736890062689781,10.402894020080566,-0.21035264432430267
1681363052320137984,0.0010652969358488917,-0.011718266643583775,0.0021305938716977835,-0.05736890062689781,10.402894020080566,-0.21035264432430267
1681363052352070912,0.003195890923961997,-0.008522375486791134,-0.0021305938716977835,-0.03824593499302864,10.402894020080566,-0.21035264432430267
1681363052384003840,0.0021305938716977835,-0.009587672539055347,-0.004261187743395567,-0.03824593499302864,10.422017097473145,-0.24859857559204102
1681363052384003840,0.0021305938716977835,-0.009587672539055347,-0.004261187743395567,-0.03824593499302864,10.422017097473145,-0.24859857559204102
1681363052431897344,0.007457078900188208,-0.006391781847923994,0.0,-0.133860781788826,10.383770942687988,-0.21035264432430267
1681363052447863040,0.0010652969358488917,-0.010652969591319561,0.010652969591319561,-0.133860781788826,10.422017097473145,-0.22947560250759125
1681363052463826688,0.0021305938716977835,-0.006391781847923994,0.014914157800376415,-0.09561483561992645,10.441140174865723,-0.24859857559204102
1681363052495684096,0.004261187743395567,-0.011718266643583775,-0.0021305938716977835,0.0,10.402894020080566,-0.21035264432430267
1681363052527617024,0.0021305938716977835,-0.004261187743395567,0.004261187743395567,-0.03824593499302864,10.422017097473145,-0.24859857559204102
1681363052527617024,0.0021305938716977835,-0.004261187743395567,0.004261187743395567,-0.03824593499302864,10.422017097473145,-0.24859857559204102
1681363052559544320,0.006391781847923994,-0.008522375486791134,0.0,-0.03824593499302864,10.383770942687988,-0.21035264432430267
1681363052591478016,0.0010652969358488917,-0.007457078900188208,-0.0021305938716977835,-0.11473780125379562,10.402894020080566,-0.24859857559204102
1681363052591478016,0.0010652969358488917,-0.007457078900188208,-0.0021305938716977835,-0.11473780125379562,10.402894020080566,-0.24859857559204102
1681363052623414272,0.006391781847923994,-0.008522375486791134,0.0021305938716977835,-0.05736890062689781,10.402894020080566,-0.21035264432430267
1681363052655351808,0.003195890923961997,-0.006391781847923994,0.0021305938716977835,-0.01912296749651432,10.402894020080566,-0.21035264432430267
1681363052655351808,0.0021305938716977835,-0.010652969591319561,0.0053264847956597805,-0.01912296749651432,10.402894020080566,-0.21035264432430267
1681363052687283968,0.004261187743395567,-0.008522375486791134,0.0021305938716977835,-0.03824593499302864,10.422017097473145,-0.22947560250759125
1681363052719216384,0.004261187743395567,-0.008522375486791134,-0.0010652969358488917,-0.07649186998605728,10.402894020080566,-0.21035264432430267
1681363052719216384,0.004261187743395567,-0.008522375486791134,-0.0010652969358488917,-0.07649186998605728,10.402894020080566,-0.21035264432430267
1681363052751151872,0.0010652969358488917,-0.008522375486791134,0.007457078900188208,-0.09561483561992645,10.422017097473145,-0.22947560250759125
1681363052783087616,0.0021305938716977835,-0.006391781847923994,0.006391781847923994,-0.07649186998605728,10.422017097473145,-0.21035264432430267
1681363052783087616,0.0021305938716977835,-0.006391781847923994,0.006391781847923994,-0.07649186998605728,10.422017097473145,-0.21035264432430267
1681363052830993664,0.0010652969358488917,-0.006391781847923994,0.007457078900188208,-0.01912296749651432,10.402894020080566,-0.22947560250759125
1681363052862931456,0.0053264847956597805,-0.003195890923961997,0.0010652969358488917,-0.01912296749651432,10.402894020080566,-0.22947560250759125
1681363052862931456,0.003195890923961997,-0.011718266643583775,-0.0021305938716977835,-0.01912296749651432,10.402894020080566,-0.22947560250759125
1681363052894864896,0.003195890923961997,-0.007457078900188208,-0.0053264847956597805,-0.01912296749651432,10.402894020080566,-0.22947560250759125
1681363052926800896,0.004261187743395567,-0.003195890923961997,-0.004261187743395567,-0.07649186998605728,10.383770942687988,-0.21035264432430267
1681363052926800896,0.004261187743395567,-0.003195890923961997,0.0010652969358488917,-0.07649186998605728,10.383770942687988,-0.21035264432430267
1681363052958738688,0.003195890923961997,-0.010652969591319561,-0.003195890923961997,-0.03824593499302864,10.422017097473145,-0.22947560250759125
1681363052990642176,0.0053264847956597805,-0.006391781847923994,-0.006391781847923994,-0.03824593499302864,10.383770942687988,-0.21035264432430267
1681363052990642176,0.0053264847956597805,-0.006391781847923994,-0.006391781847923994,-0.03824593499302864,10.383770942687988,-0.21035264432430267
1681363053022572800,0.004261187743395567,-0.007457078900188208,-0.0010652969358488917,-0.07649186998605728,10.402894020080566,-0.24859857559204102
1681363053054503680,0.004261187743395567,-0.008522375486791134,0.007457078900188208,-0.09561483561992645,10.402894020080566,-0.21035264432430267
1681363053054503680,0.004261187743395567,-0.008522375486791134,0.007457078900188208,-0.09561483561992645,10.402894020080566,-0.21035264432430267
1681363053086437888,0.0021305938716977835,-0.0053264847956597805,0.007457078900188208,-0.07649186998605728,10.402894020080566,-0.24859857559204102
1681363053118367232,0.004261187743395567,-0.007457078900188208,0.004261187743395567,-0.03824593499302864,10.383770942687988,-0.21035264432430267
1681363053118367232,0.007457078900188208,-0.010652969591319561,0.004261187743395567,-0.03824593499302864,10.383770942687988,-0.21035264432430267
1681363053150301184,0.0021305938716977835,-0.007457078900188208,0.003195890923961997,-0.03824593499302864,10.402894020080566,-0.22947560250759125
1681363053182232832,0.0021305938716977835,-0.008522375486791134,-0.003195890923961997,-0.03824593499302864,10.422017097473145,-0.22947560250759125
1681363053198198784,0.0021305938716977835,-0.008522375486791134,-0.003195890923961997,-0.03824593499302864,10.402894020080566,-0.22947560250759125
1681363053230132736,0.0053264847956597805,-0.008522375486791134,-0.003195890923961997,-0.07649186998605728,10.402894020080566,-0.22947560250759125
1681363053262065152,0.0021305938716977835,-0.010652969591319561,-0.003195890923961997,-0.03824593499302864,10.402894020080566,-0.22947560250759125
1681363053262065152,0.0021305938716977835,-0.010652969591319561,-0.003195890923961997,-0.03824593499302864,10.402894020080566,-0.22947560250759125
1681363053293997824,0.0,-0.007457078900188208,-0.008522375486791134,-0.03824593499302864,10.383770942687988,-0.21035264432430267
1681363053325935104,0.0021305938716977835,-0.006391781847923994,-0.010652969591319561,-0.05736890062689781,10.422017097473145,-0.22947560250759125
1681363053325935104,0.0010652969358488917,-0.007457078900188208,-0.011718266643583775,-0.05736890062689781,10.422017097473145,-0.22947560250759125
1681363053357869056,0.0010652969358488917,-0.006391781847923994,-0.006391781847923994,-0.09561483561992645,10.402894020080566,-0.21035264432430267
1681363053389803264,0.003195890923961997,-0.007457078900188208,0.004261187743395567,-0.15298373997211456,10.422017097473145,-0.22947560250759125
1681363053389803264,0.003195890923961997,-0.007457078900188208,0.004261187743395567,-0.15298373997211456,10.422017097473145,-0.22947560250759125
1681363053421739520,0.003195890923961997,-0.009587672539055347,0.011718266643583775,-0.11473780125379562,10.402894020080566,-0.22947560250759125
1681363053453673984,0.003195890923961997,-0.007457078900188208,0.012783563695847988,-0.07649186998605728,10.402894020080566,-0.22947560250759125
1681363053453673984,0.003195890923961997,-0.007457078900188208,0.012783563695847988,-0.07649186998605728,10.402894020080566,-0.22947560250759125
1681363053485607424,0.004261187743395567,-0.007457078900188208,-0.0021305938716977835,0.01912296749651432,10.402894020080566,-0.22947560250759125
1681363053517490432,0.004261187743395567,-0.009587672539055347,-0.010652969591319561,0.0,10.402894020080566,-0.1912296712398529
1681363053517490432,0.004261187743395567,-0.003195890923961997,-0.007457078900188208,0.0,10.402894020080566,-0.1912296712398529
1681363053549426688,0.0021305938716977835,-0.004261187743395567,-0.003195890923961997,-0.05736890062689781,10.402894020080566,-0.24859857559204102
1681363053581362944,0.003195890923961997,-0.006391781847923994,-0.003195890923961997,-0.11473780125379562,10.402894020080566,-0.21035264432430267
1681363053597329152,0.003195890923961997,-0.006391781847923994,-0.003195890923961997,-0.133860781788826,10.402894020080566,-0.22947560250759125
1681363053629263872,0.004261187743395567,-0.004261187743395567,0.0021305938716977835,-0.09561483561992645,10.402894020080566,-0.24859857559204102
1681363053661201408,0.0053264847956597805,-0.008522375486791134,0.003195890923961997,-0.05736890062689781,10.402894020080566,-0.22947560250759125
1681363053661201408,0.0053264847956597805,-0.008522375486791134,0.003195890923961997,-0.05736890062689781,10.402894020080566,-0.22947560250759125
1681363053693135616,0.0021305938716977835,-0.006391781847923994,0.003195890923961997,-0.07649186998605728,10.422017097473145,-0.22947560250759125
1681363053725067520,0.0053264847956597805,-0.010652969591319561,0.0010652969358488917,-0.05736890062689781,10.422017097473145,-0.21035264432430267
1681363053725067520,0.0053264847956597805,-0.006391781847923994,-0.0053264847956597805,-0.05736890062689781,10.422017097473145,-0.21035264432430267
1681363053757001728,0.0021305938716977835,-0.008522375486791134,0.0010652969358488917,-0.05736890062689781,10.402894020080566,-0.22947560250759125
1681363053788938496,0.004261187743395567,-0.006391781847923994,0.003195890923961997,-0.07649186998605728,10.402894020080566,-0.22947560250759125
1681363053788938496,0.0021305938716977835,-0.008522375486791134,0.003195890923961997,-0.07649186998605728,10.402894020080566,-0.22947560250759125
1681363053820873216,0.003195890923961997,-0.0053264847956597805,0.0,-0.07649186998605728,10.402894020080566,-0.22947560250759125
1681363053852813824,0.004261187743395567,-0.007457078900188208,0.004261187743395567,-0.07649186998605728,10.402894020080566,-0.22947560250759125
1681363053852813824,0.004261187743395567,-0.007457078900188208,0.004261187743395567,-0.07649186998605728,10.402894020080566,-0.22947560250759125
1681363053884756736,0.0021305938716977835,-0.010652969591319561,0.0010652969358488917,-0.05736890062689781,10.422017097473145,-0.21035264432430267
1681363053916692992,0.003195890923961997,-0.008522375486791134,-0.0053264847956597805,-0.03824593499302864,10.422017097473145,-0.22947560250759125
1681363053916692992,0.003195890923961997,-0.008522375486791134,-0.0053264847956597805,-0.03824593499302864,10.422017097473145,-0.22947560250759125
1681363053964596480,0.0053264847956597805,-0.006391781847923994,0.0010652969358488917,-0.11473780125379562,10.402894020080566,-0.21035264432430267
1681363053996461568,0.0021305938716977835,-0.009587672539055347,0.003195890923961997,-0.09561483561992645,10.402894020080566,-0.22947560250759125
1681363053996461568,0.0021305938716977835,-0.008522375486791134,0.0010652969358488917,-0.09561483561992645,10.402894020080566,-0.22947560250759125
1681363054028400896,0.0021305938716977835,-0.009587672539055347,0.008522375486791134,-0.07649186998605728,10.402894020080566,-0.22947560250759125
1681363054060333312,0.003195890923961997,-0.008522375486791134,0.006391781847923994,-0.05736890062689781,10.402894020080566,-0.21035264432430267
1681363054060333312,0.003195890923961997,-0.008522375486791134,0.006391781847923994,-0.05736890062689781,10.402894020080566,-0.21035264432430267
1681363054092265472,0.004261187743395567,-0.0021305938716977835,0.0,-0.03824593499302864,10.402894020080566,-0.21035264432430267
1681363054124200960,0.004261187743395567,-0.0053264847956597805,0.006391781847923994,-0.09561483561992645,10.422017097473145,-0.21035264432430267
1681363054124200960,0.004261187743395567,-0.0053264847956597805,0.006391781847923994,-0.09561483561992645,10.422017097473145,-0.21035264432430267
1681363054156140288,0.007457078900188208,-0.0053264847956597805,0.003195890923961997,-0.05736890062689781,10.402894020080566,-0.21035264432430267
1681363054188077568,0.006391781847923994,-0.007457078900188208,-0.0010652969358488917,-0.03824593499302864,10.402894020080566,-0.22947560250759125
1681363054188077568,0.003195890923961997,-0.003195890923961997,0.004261187743395567,-0.03824593499302864,10.402894020080566,-0.22947560250759125
1681363054220013824,0.004261187743395567,-0.0053264847956597805,-0.003195890923961997,0.0,10.422017097473145,-0.22947560250759125
1681363054251956736,0.004261187743395567,-0.0053264847956597805,-0.015979453921318054,-0.01912296749651432,10.383770942687988,-0.1912296712398529
1681363054251956736,0.004261187743395567,-0.0053264847956597805,-0.015979453921318054,-0.01912296749651432,10.383770942687988,-0.1912296712398529
1681363054283896320,0.004261187743395567,-0.004261187743395567,0.0010652969358488917,-0.133860781788826,10.402894020080566,-0.22947560250759125
1681363054315832320,0.004261187743395567,-0.009587672539055347,0.0053264847956597805,-0.133860781788826,10.422017097473145,-0.21035264432430267
1681363054331800576,0.004261187743395567,-0.009587672539055347,0.0053264847956597805,-0.133860781788826,10.402894020080566,-0.21035264432430267
1681363054363734016,0.004261187743395567,-0.008522375486791134,0.010652969591319561,-0.07649186998605728,10.402894020080566,-0.24859857559204102
1681363054395670272,0.0053264847956597805,-0.006391781847923994,0.009587672539055347,0.0,10.402894020080566,-0.21035264432430267
1681363054395670272,0.003195890923961997,-0.008522375486791134,0.004261187743395567,0.0,10.402894020080566,-0.21035264432430267
1681363054427605760,0.0021305938716977835,-0.008522375486791134,0.0010652969358488917,-0.01912296749651432,10.422017097473145,-0.24859857559204102
1681363054459539968,0.003195890923961997,-0.006391781847923994,-0.004261187743395567,-0.07649186998605728,10.402894020080566,-0.21035264432430267
1681363054459539968,0.003195890923961997,-0.006391781847923994,-0.004261187743395567,-0.07649186998605728,10.402894020080566,-0.21035264432430267
1681363054491409152,0.003195890923961997,-0.007457078900188208,0.004261187743395567,-0.11473780125379562,10.402894020080566,-0.21035264432430267
1681363054523348224,0.0,-0.007457078900188208,0.004261187743395567,-0.07649186998605728,10.422017097473145,-0.24859857559204102
1681363054523348224,0.0,-0.007457078900188208,0.004261187743395567,-0.07649186998605728,10.422017097473145,-0.24859857559204102
1681363054555282432,0.0,-0.011718266643583775,0.0,-0.03824593499302864,10.402894020080566,-0.21035264432430267
1681363054587212800,0.003195890923961997,-0.009587672539055347,0.0,-0.05736890062689781,10.422017097473145,-0.22947560250759125
1681363054587212800,0.003195890923961997,-0.008522375486791134,0.0010652969358488917,-0.05736890062689781,10.422017097473145,-0.22947560250759125
1681363054619144960,0.0,-0.0053264847956597805,-0.0021305938716977835,-0.05736890062689781,10.422017097473145,-0.22947560250759125
1681363054651080960,0.0021305938716977835,-0.003195890923961997,-0.010652969591319561,-0.05736890062689781,10.422017097473145,-0.22947560250759125
1681363054651080960,0.0021305938716977835,-0.009587672539055347,-0.008522375486791134,-0.05736890062689781,10.422017097473145,-0.22947560250759125
1681363054683016960,0.0021305938716977835,-0.006391781847923994,0.0,-0.09561483561992645,10.383770942687988,-0.22947560250759125
1681363054714949632,0.003195890923961997,-0.013848859816789627,-0.003195890923961997,-0.07649186998605728,10.422017097473145,-0.3059674799442291
1681363054730914560,0.003195890923961997,-0.013848859816789627,-0.003195890923961997,0.0,10.441140174865723,-0.22947560250759125
1681363054762851584,0.003195890923961997,-0.006391781847923994,-0.007457078900188208,-0.09561483561992645,10.383770942687988,-0.24859857559204102
1681363054794786304,0.0,-0.007457078900188208,0.0,-0.07649186998605728,10.402894020080566,-0.21035264432430267
1681363054794786304,0.0,-0.007457078900188208,0.0,-0.07649186998605728,10.402894020080566,-0.21035264432430267
1681363054826720256,0.003195890923961997,-0.010652969591319561,-0.009587672539055347,-0.03824593499302864,10.383770942687988,-0.21035264432430267
1681363054858654976,0.0021305938716977835,-0.004261187743395567,-0.008522375486791134,-0.07649186998605728,10.441140174865723,-0.24859857559204102
1681363054858654976,0.0021305938716977835,-0.004261187743395567,-0.012783563695847988,-0.07649186998605728,10.441140174865723,-0.24859857559204102
1681363054890592512,0.0,-0.012783563695847988,-0.012783563695847988,-0.03824593499302864,10.383770942687988,-0.1912296712398529
1681363054922526464,-0.0053264847956597805,-0.02663242444396019,-0.003195890923961997,-0.09561483561992645,10.402894020080566,-0.267721563577652
1681363054922526464,-0.0053264847956597805,-0.02663242444396019,-0.003195890923961997,-0.09561483561992645,10.402894020080566,-0.267721563577652
1681363054954465536,0.003195890923961997,-0.011718266643583775,-0.012783563695847988,-0.09561483561992645,10.402894020080566,-0.21035264432430267
1681363054986403072,0.007457078900188208,0.0,-0.012783563695847988,-0.15298373997211456,10.402894020080566,-0.17210669815540314
1681363054986403072,0.007457078900188208,0.0,-0.012783563695847988,-0.15298373997211456,10.402894020080566,-0.17210669815540314
1681363055018308096,0.0053264847956597805,-0.015979453921318054,0.013848859816789627,-0.1912296712398529,10.402894020080566,-0.11473780125379562
1681363055050246400,0.0021305938716977835,-0.010652969591319561,0.01811004802584648,-0.09561483561992645,10.383770942687988,-0.3059674799442291
1681363055050246400,-0.0010652969358488917,-0.009587672539055347,0.012783563695847988,-0.09561483561992645,10.383770942687988,-0.3059674799442291
1681363055098155008,-0.0010652969358488917,-0.0053264847956597805,-0.009587672539055347,0.0,10.364648818969727,-0.3250904381275177
1681363055114127360,-0.003195890923961997,-0.02024064213037491,-0.010652969591319561,-0.03824593499302864,10.364648818969727,-0.3442133963108063
1681363055130096896,-0.003195890923961997,-0.02024064213037491,-0.010652969591319561,-0.05736890062689781,10.402894020080566,-0.3250904381275177
1681363055162033920,-0.006391781847923994,-0.024501828476786613,-0.021305939182639122,0.0,10.422017097473145,-0.3442133963108063
1681363055193968896,-0.008522375486791134,-0.015979453921318054,-0.04474247246980667,0.0,10.402894020080566,-0.21035264432430267
1681363055193968896,-0.008522375486791134,-0.015979453921318054,-0.04474247246980667,0.0,10.402894020080566,-0.21035264432430267
1681363055225905664,-0.0010652969358488917,-0.007457078900188208,-0.05326484888792038,-0.15298373997211456,10.422017097473145,-0.15298373997211456
1681363055257842688,-0.0021305938716977835,-0.013848859816789627,-0.02343653328716755,-0.3442133963108063,10.422017097473145,-0.09561483561992645
1681363055257842688,-0.0010652969358488917,-0.010652969591319561,-0.01811004802584648,-0.3442133963108063,10.422017097473145,-0.09561483561992645
1681363055289780992,0.0021305938716977835,-0.015979453921318054,0.009587672539055347,-0.3442133963108063,10.383770942687988,-0.03824593499302864
1681363055321718016,-0.0010652969358488917,-0.009587672539055347,0.02024064213037491,-0.24859857559204102,10.402894020080566,-0.11473780125379562
1681363055321718016,-0.0010652969358488917,-0.009587672539055347,0.02024064213037491,-0.24859857559204102,10.402894020080566,-0.11473780125379562
1681363055353651456,0.006391781847923994,-0.0053264847956597805,0.01811004802584648,-0.03824593499302864,10.383770942687988,-0.133860781788826
1681363055385582080,0.008522375486791134,-0.0021305938716977835,-0.003195890923961997,0.05736890062689781,10.402894020080566,-0.17210669815540314
1681363055385582080,0.008522375486791134,-0.0021305938716977835,-0.003195890923961997,0.05736890062689781,10.402894020080566,-0.17210669815540314
1681363055417517312,0.007457078900188208,-0.0053264847956597805,-0.027697719633579254,0.03824593499302864,10.383770942687988,-0.17210669815540314
1681363055449449984,0.008522375486791134,0.004261187743395567,-0.0468730665743351,-0.01912296749651432,10.422017097473145,-0.1912296712398529
1681363055449449984,0.007457078900188208,0.009587672539055347,-0.05219954997301102,-0.01912296749651432,10.422017097473145,-0.1912296712398529
1681363055497305344,0.01811004802584648,0.007457078900188208,-0.012783563695847988,-0.5163201093673706,10.402894020080566,-0.05736890062689781
1681363055529238016,0.01811004802584648,0.0053264847956597805,0.06711370497941971,-0.6884267926216125,10.364648818969727,-0.21035264432430267
1681363055529238016,0.01811004802584648,0.0053264847956597805,0.06711370497941971,-0.6884267926216125,10.364648818969727,-0.21035264432430267
1681363055561170944,0.012783563695847988,0.008522375486791134,0.08415846526622772,-0.17210669815540314,10.441140174865723,-0.17210669815540314
1681363055593097984,0.01811004802584648,0.004261187743395567,0.07244019210338593,0.15298373997211456,10.307279586791992,-0.3442133963108063
1681363055593097984,0.01811004802584648,0.004261187743395567,0.07244019210338593,0.15298373997211456,10.307279586791992,-0.3442133963108063
1681363055625025024,-0.004261187743395567,-0.007457078900188208,0.006391781847923994,0.49719715118408203,10.441140174865723,-0.47807416319847107
1681363055656955904,0.004261187743395567,-0.010652969591319561,-0.07244019210338593,0.3250904381275177,10.364648818969727,-0.3250904381275177
1681363055656955904,0.004261187743395567,-0.010652969591319561,-0.07244019210338593,0.3250904381275177,10.364648818969727,-0.3250904381275177
1681363055688894208,-0.004261187743395567,-0.008522375486791134,-0.09268083423376083,-0.15298373997211456,10.441140174865723,-0.3059674799442291
1681363055720828416,0.0,-0.022371236234903336,-0.0585913322865963,-0.4398282468318939,10.383770942687988,-0.133860781788826
1681363055720828416,0.0010652969358488917,-0.019175345078110695,-0.0468730665743351,-0.4398282468318939,10.383770942687988,-0.133860781788826
1681363055752758528,-0.0010652969358488917,-0.013848859816789627,-0.0010652969358488917,-0.47807416319847107,10.402894020080566,-0.11473780125379562
1681363055784694016,0.0021305938716977835,-0.0010652969358488917,0.039415985345840454,-0.3250904381275177,10.422017097473145,-0.09561483561992645
1681363055784694016,0.0021305938716977835,-0.0010652969358488917,0.039415985345840454,-0.3250904381275177,10.422017097473145,-0.09561483561992645
1681363055816626688,0.010652969591319561,-0.008522375486791134,0.039415985345840454,-0.09561483561992645,10.383770942687988,-0.09561483561992645
1681363055848555776,0.008522375486791134,0.0010652969358488917,0.027697719633579254,0.0,10.422017097473145,-0.22947560250759125
1681363055864520448,0.008522375486791134,0.0010652969358488917,0.027697719633579254,0.01912296749651432,10.402894020080566,-0.24859857559204102
1681363055896447232,0.004261187743395567,-0.003195890923961997,-0.014914157800376415,0.01912296749651432,10.402894020080566,-0.24859857559204102
1681363055928379648,0.0021305938716977835,-0.003195890923961997,-0.012783563695847988,-0.1912296712398529,10.402894020080566,-0.267721563577652
1681363055960310016,-0.004261187743395567,-0.006391781847923994,0.008522375486791134,-0.24859857559204102,10.422017097473145,-0.24859857559204102
1681363055992240896,0.006391781847923994,-0.006391781847923994,0.010652969591319561,-0.22947560250759125,10.402894020080566,-0.1912296712398529
1681363055992240896,0.006391781847923994,-0.006391781847923994,0.010652969591319561,-0.22947560250759125,10.402894020080566,-0.1912296712398529
1681363056024141824,0.0021305938716977835,-0.008522375486791134,0.019175345078110695,-0.133860781788826,10.402894020080566,-0.24859857559204102
1681363056056070400,0.0021305938716977835,-0.006391781847923994,-0.0053264847956597805,0.05736890062689781,10.402894020080566,-0.15298373997211456
1681363056056070400,0.0021305938716977835,-0.006391781847923994,-0.0053264847956597805,0.05736890062689781,10.402894020080566,-0.15298373997211456
1681363056087999488,0.0053264847956597805,-0.004261187743395567,-0.02663242444396019,0.0,10.422017097473145,-0.21035264432430267
1681363056119930624,0.0010652969358488917,-0.007457078900188208,-0.027697719633579254,-0.11473780125379562,10.422017097473145,-0.22947560250759125
1681363056119930624,0.0,-0.008522375486791134,-0.02982831560075283,-0.11473780125379562,10.422017097473145,-0.22947560250759125
1681363056151864064,0.007457078900188208,-0.007457078900188208,-0.021305939182639122,-0.22947560250759125,10.383770942687988,-0.21035264432430267
1681363056183793920,0.0010652969358488917,-0.010652969591319561,0.0053264847956597805,-0.3059674799442291,10.422017097473145,-0.24859857559204102
1681363056183793920,0.0010652969358488917,-0.010652969591319561,0.0053264847956597805,-0.3059674799442291,10.422017097473145,-0.24859857559204102
1681363056215725824,0.003195890923961997,-0.014914157800376415,-0.008522375486791134,-0.11473780125379562,10.402894020080566,-0.21035264432430267
1681363056247659776,0.0021305938716977835,-0.006391781847923994,-0.017044750973582268,-0.03824593499302864,10.402894020080566,-0.21035264432430267
1681363056263625984,0.0021305938716977835,-0.006391781847923994,-0.017044750973582268,-0.03824593499302864,10.383770942687988,-0.24859857559204102
1681363056295560448,0.003195890923961997,-0.007457078900188208,-0.025567127391695976,-0.11473780125379562,10.383770942687988,-0.17210669815540314
1681363056327492096,0.004261187743395567,-0.008522375486791134,-0.014914157800376415,-0.267721563577652,10.422017097473145,-0.22947560250759125
1681363056327492096,0.003195890923961997,-0.011718266643583775,-0.013848859816789627,-0.267721563577652,10.422017097473145,-0.22947560250759125
1681363056359420416,-0.0010652969358488917,-0.013848859816789627,-0.0053264847956597805,-0.267721563577652,10.422017097473145,-0.21035264432430267
1681363056391349760,0.0053264847956597805,-0.008522375486791134,0.0053264847956597805,-0.21035264432430267,10.383770942687988,-0.1912296712398529
1681363056391349760,0.0053264847956597805,-0.008522375486791134,0.0053264847956597805,-0.21035264432430267,10.383770942687988,-0.1912296712398529
1681363056423281152,0.0021305938716977835,-0.012783563695847988,0.02343653328716755,-0.1912296712398529,10.402894020080566,-0.22947560250759125
1681363056455206912,0.004261187743395567,-0.007457078900188208,0.013848859816789627,-0.133860781788826,10.441140174865723,-0.1912296712398529
1681363056455206912,0.004261187743395567,-0.007457078900188208,0.013848859816789627,-0.133860781788826,10.441140174865723,-0.1912296712398529
1681363056487136256,0.003195890923961997,-0.008522375486791134,-0.0010652969358488917,-0.09561483561992645,10.422017097473145,-0.1912296712398529
1681363056519071232,0.0021305938716977835,-0.0053264847956597805,-0.004261187743395567,-0.09561483561992645,10.402894020080566,-0.17210669815540314
1681363056519071232,0.0053264847956597805,-0.008522375486791134,0.0021305938716977835,-0.09561483561992645,10.402894020080566,-0.17210669815540314
1681363056551006976,0.006391781847923994,-0.006391781847923994,0.004261187743395567,-0.1912296712398529,10.383770942687988,-0.1912296712398529
1681363056582942208,0.003195890923961997,-0.007457078900188208,0.015979453921318054,-0.24859857559204102,10.441140174865723,-0.22947560250759125
1681363056582942208,0.0,-0.006391781847923994,0.015979453921318054,-0.24859857559204102,10.441140174865723,-0.22947560250759125
1681363056630844672,0.003195890923961997,-0.0021305938716977835,0.010652969591319561,-0.09561483561992645,10.402894020080566,-0.1912296712398529
1681363056662782208,0.003195890923961997,-0.004261187743395567,0.006391781847923994,-0.07649186998605728,10.383770942687988,-0.21035264432430267
1681363056662782208,0.003195890923961997,-0.004261187743395567,0.006391781847923994,-0.07649186998605728,10.383770942687988,-0.21035264432430267
1681363056694717184,0.008522375486791134,0.0010652969358488917,0.02343653328716755,-0.21035264432430267,10.402894020080566,-0.21035264432430267
1681363056726652672,0.004261187743395567,-0.007457078900188208,0.022371236234903336,-0.21035264432430267,10.422017097473145,-0.21035264432430267
1681363056726652672,0.004261187743395567,-0.007457078900188208,0.022371236234903336,-0.21035264432430267,10.422017097473145,-0.21035264432430267
1681363056758588672,0.007457078900188208,-0.0053264847956597805,0.03622009605169296,-0.21035264432430267,10.383770942687988,-0.21035264432430267
1681363056790521344,0.004261187743395567,-0.003195890923961997,0.04900365695357323,-0.133860781788826,10.422017097473145,-0.24859857559204102
1681363056790521344,0.006391781847923994,-0.004261187743395567,0.045807767659425735,-0.133860781788826,10.422017097473145,-0.24859857559204102
1681363056822454016,0.007457078900188208,-0.0053264847956597805,0.030893610790371895,0.0,10.402894020080566,-0.21035264432430267
1681363056854390528,0.008522375486791134,0.0010652969358488917,0.011718266643583775,-0.05736890062689781,10.383770942687988,-0.22947560250759125
1681363056854390528,0.008522375486791134,0.0010652969358488917,0.011718266643583775,-0.05736890062689781,10.383770942687988,-0.22947560250759125
1681363056886324480,0.0053264847956597805,-0.004261187743395567,0.013848859816789627,-0.05736890062689781,10.402894020080566,-0.22947560250759125
1681363056918258176,0.004261187743395567,-0.006391781847923994,-0.006391781847923994,0.0,10.402894020080566,-0.1912296712398529
1681363056918258176,0.004261187743395567,-0.006391781847923994,-0.006391781847923994,0.0,10.402894020080566,-0.1912296712398529
1681363056950192640,0.0053264847956597805,0.0,0.006391781847923994,-0.11473780125379562,10.402894020080566,-0.21035264432430267
1681363056982124800,0.003195890923961997,-0.0021305938716977835,0.010652969591319561,-0.11473780125379562,10.422017097473145,-0.22947560250759125
1681363056998091008,0.003195890923961997,-0.004261187743395567,0.011718266643583775,-0.11473780125379562,10.422017097473145,-0.21035264432430267
1681363057029916160,0.0010652969358488917,-0.006391781847923994,0.013848859816789627,-0.09561483561992645,10.422017097473145,-0.267721563577652
1681363057061850624,0.0010652969358488917,-0.006391781847923994,0.007457078900188208,-0.03824593499302864,10.422017097473145,-0.21035264432430267
1681363057061850624,0.0010652969358488917,-0.006391781847923994,0.007457078900188208,-0.03824593499302864,10.422017097473145,-0.21035264432430267
1681363057093791488,0.0053264847956597805,-0.006391781847923994,0.007457078900188208,-0.05736890062689781,10.383770942687988,-0.22947560250759125
1681363057125729536,0.004261187743395567,-0.010652969591319561,0.006391781847923994,-0.09561483561992645,10.422017097473145,-0.21035264432430267
1681363057125729536,0.004261187743395567,-0.010652969591319561,0.006391781847923994,-0.09561483561992645,10.422017097473145,-0.21035264432430267
1681363057157662720,0.007457078900188208,-0.0010652969358488917,0.009587672539055347,-0.133860781788826,10.402894020080566,-0.21035264432430267
1681363057189590784,0.004261187743395567,-0.008522375486791134,0.015979453921318054,-0.11473780125379562,10.422017097473145,-0.21035264432430267
1681363057189590784,0.0021305938716977835,-0.008522375486791134,0.015979453921318054,-0.11473780125379562,10.422017097473145,-0.21035264432430267
1681363057221522432,0.004261187743395567,-0.007457078900188208,0.006391781847923994,0.0,10.422017097473145,-0.24859857559204102
1681363057253454336,0.007457078900188208,-0.0021305938716977835,0.0010652969358488917,-0.03824593499302864,10.383770942687988,-0.22947560250759125
1681363057253454336,0.007457078900188208,-0.0021305938716977835,0.0010652969358488917,-0.03824593499302864,10.383770942687988,-0.22947560250759125
1681363057285389568,0.0010652969358488917,-0.007457078900188208,0.0053264847956597805,-0.07649186998605728,10.422017097473145,-0.24859857559204102
1681363057317329920,0.006391781847923994,-0.009587672539055347,0.003195890923961997,-0.11473780125379562,10.402894020080566,-0.21035264432430267
1681363057317329920,0.006391781847923994,-0.009587672539055347,0.003195890923961997,-0.11473780125379562,10.402894020080566,-0.21035264432430267
1681363057349271552,0.003195890923961997,-0.004261187743395567,0.015979453921318054,-0.09561483561992645,10.422017097473145,-0.24859857559204102
1681363057381205760,0.0021305938716977835,-0.011718266643583775,0.021305939182639122,-0.09561483561992645,10.402894020080566,-0.22947560250759125
1681363057397172224,0.006391781847923994,-0.007457078900188208,0.013848859816789627,-0.03824593499302864,10.402894020080566,-0.22947560250759125
1681363057429109504,0.0053264847956597805,-0.006391781847923994,0.009587672539055347,-0.01912296749651432,10.383770942687988,-0.22947560250759125
1681363057461046016,0.003195890923961997,-0.004261187743395567,0.003195890923961997,0.0,10.402894020080566,-0.22947560250759125
1681363057461046016,0.0053264847956597805,-0.008522375486791134,-0.0010652969358488917,0.0,10.402894020080566,-0.22947560250759125
1681363057492981248,0.0021305938716977835,-0.007457078900188208,0.0021305938716977835,-0.03824593499302864,10.383770942687988,-0.17210669815540314
1681363057524854528,0.004261187743395567,-0.008522375486791134,0.003195890923961997,-0.05736890062689781,10.422017097473145,-0.22947560250759125
1681363057524854528,0.004261187743395567,-0.008522375486791134,0.003195890923961997,-0.05736890062689781,10.422017097473145,-0.22947560250759125
1681363057556788992,0.004261187743395567,-0.006391781847923994,0.009587672539055347,-0.11473780125379562,10.422017097473145,-0.21035264432430267
1681363057588728064,0.004261187743395567,-0.008522375486791134,0.010652969591319561,-0.05736890062689781,10.422017097473145,-0.24859857559204102
1681363057588728064,0.004261187743395567,-0.008522375486791134,0.010652969591319561,-0.05736890062689781,10.422017097473145,-0.24859857559204102
1681363057620659200,0.006391781847923994,-0.008522375486791134,0.0,0.01912296749651432,10.402894020080566,-0.21035264432430267
1681363057652595968,0.0053264847956597805,-0.006391781847923994,-0.003195890923961997,0.0,10.402894020080566,-0.21035264432430267
1681363057652595968,0.0053264847956597805,-0.0021305938716977835,-0.008522375486791134,0.0,10.402894020080566,-0.21035264432430267
1681363057684530944,0.0010652969358488917,-0.009587672539055347,0.0021305938716977835,-0.11473780125379562,10.422017097473145,-0.21035264432430267
1681363057716469504,0.004261187743395567,-0.0053264847956597805,0.004261187743395567,-0.09561483561992645,10.422017097473145,-0.22947560250759125
1681363057716469504,0.004261187743395567,-0.0053264847956597805,0.004261187743395567,-0.09561483561992645,10.422017097473145,-0.22947560250759125
1681363057764377856,0.0010652969358488917,-0.0053264847956597805,0.007457078900188208,-0.03824593499302864,10.402894020080566,-0.22947560250759125
1681363057796311296,0.0010652969358488917,-0.010652969591319561,0.0010652969358488917,0.03824593499302864,10.422017097473145,-0.21035264432430267
1681363057828249856,0.0053264847956597805,-0.009587672539055347,-0.003195890923961997,-0.05736890062689781,10.422017097473145,-0.22947560250759125
1681363057828249856,0.0053264847956597805,-0.009587672539055347,-0.003195890923961997,-0.05736890062689781,10.422017097473145,-0.22947560250759125
1681363057860184576,0.0021305938716977835,-0.006391781847923994,0.004261187743395567,-0.07649186998605728,10.402894020080566,-0.21035264432430267
1681363057892120576,0.0021305938716977835,-0.011718266643583775,0.004261187743395567,-0.07649186998605728,10.383770942687988,-0.21035264432430267
1681363057892120576,0.0021305938716977835,-0.011718266643583775,0.004261187743395567,-0.07649186998605728,10.383770942687988,-0.21035264432430267
1681363057924054016,0.0021305938716977835,-0.011718266643583775,0.006391781847923994,-0.03824593499302864,10.422017097473145,-0.24859857559204102
1681363057955983872,0.0053264847956597805,-0.008522375486791134,-0.006391781847923994,0.01912296749651432,10.402894020080566,-0.21035264432430267
1681363057955983872,0.003195890923961997,-0.011718266643583775,-0.0053264847956597805,0.01912296749651432,10.402894020080566,-0.21035264432430267
1681363057987918336,0.003195890923961997,-0.009587672539055347,-0.004261187743395567,-0.01912296749651432,10.402894020080566,-0.21035264432430267
1681363058019853824,0.008522375486791134,-0.0053264847956597805,0.0010652969358488917,-0.09561483561992645,10.402894020080566,-0.21035264432430267
1681363058019853824,0.008522375486791134,-0.0053264847956597805,0.0010652969358488917,-0.09561483561992645,10.402894020080566,-0.21035264432430267
1681363058051787008,0.004261187743395567,-0.009587672539055347,0.003195890923961997,-0.09561483561992645,10.402894020080566,-0.22947560250759125
1681363058083720192,0.004261187743395567,-0.006391781847923994,0.004261187743395567,-0.03824593499302864,10.402894020080566,-0.22947560250759125
1681363058083720192,0.004261187743395567,-0.006391781847923994,0.004261187743395567,-0.03824593499302864,10.402894020080566,-0.22947560250759125
1681363058115651584,0.007457078900188208,-0.0021305938716977835,-0.0021305938716977835,0.0,10.402894020080566,-0.21035264432430267
1681363058147586816,0.0010652969358488917,-0.006391781847923994,-0.008522375486791134,-0.01912296749651432,10.402894020080566,-0.22947560250759125
1681363058163554816,0.004261187743395567,-0.009587672539055347,-0.008522375486791134,-0.03824593499302864,10.422017097473145,-0.22947560250759125
1681363058195489792,0.003195890923961997,-0.004261187743395567,-0.012783563695847988,-0.09561483561992645,10.402894020080566,-0.21035264432430267
1681363058227427072,0.0,-0.010652969591319561,0.0010652969358488917,-0.11473780125379562,10.422017097473145,-0.22947560250759125
1681363058227427072,0.0,-0.010652969591319561,0.0010652969358488917,-0.11473780125379562,10.422017097473145,-0.22947560250759125
1681363058259359744,0.0053264847956597805,-0.004261187743395567,0.0010652969358488917,-0.03824593499302864,10.402894020080566,-0.21035264432430267
1681363058291294976,0.003195890923961997,-0.004261187743395567,0.0010652969358488917,-0.01912296749651432,10.422017097473145,-0.21035264432430267
1681363058291294976,0.003195890923961997,-0.004261187743395567,0.0010652969358488917,-0.01912296749651432,10.422017097473145,-0.21035264432430267
1681363058323224832,0.003195890923961997,-0.007457078900188208,0.0,-0.03824593499302864,10.422017097473145,-0.21035264432430267
1681363058355159552,0.006391781847923994,-0.003195890923961997,-0.0053264847956597805,-0.07649186998605728,10.422017097473145,-0.21035264432430267
1681363058355159552,0.003195890923961997,-0.009587672539055347,-0.004261187743395567,-0.07649186998605728,10.422017097473145,-0.21035264432430267
1681363058387094528,0.006391781847923994,-0.0053264847956597805,-0.003195890923961997,-0.09561483561992645,10.402894020080566,-0.22947560250759125
1681363058419027968,0.003195890923961997,-0.006391781847923994,0.0010652969358488917,-0.05736890062689781,10.402894020080566,-0.22947560250759125
1681363058419027968,0.0010652969358488917,-0.009587672539055347,0.003195890923961997,-0.05736890062689781,10.402894020080566,-0.22947560250759125
1681363058450961408,0.003195890923961997,-0.006391781847923994,-0.008522375486791134,-0.01912296749651432,10.402894020080566,-0.22947560250759125
1681363058482892800,0.004261187743395567,-0.006391781847923994,-0.010652969591319561,-0.03824593499302864,10.402894020080566,-0.21035264432430267
1681363058482892800,0.004261187743395567,-0.006391781847923994,-0.010652969591319561,-0.03824593499302864,10.402894020080566,-0.21035264432430267
1681363058530713088,0.004261187743395567,-0.006391781847923994,-0.003195890923961997,-0.11473780125379562,10.402894020080566,-0.21035264432430267
1681363058562644736,0.003195890923961997,-0.007457078900188208,0.0,-0.11473780125379562,10.422017097473145,-0.21035264432430267
1681363058562644736,0.003195890923961997,-0.007457078900188208,0.0,-0.11473780125379562,10.422017097473145,-0.21035264432430267
1681363058594580736,0.004261187743395567,-0.007457078900188208,0.004261187743395567,-0.07649186998605728,10.402894020080566,-0.21035264432430267
1681363058626519296,0.0010652969358488917,-0.009587672539055347,0.0,0.0,10.441140174865723,-0.22947560250759125
1681363058626519296,0.003195890923961997,-0.009587672539055347,-0.004261187743395567,0.0,10.441140174865723,-0.22947560250759125
1681363058658460160,0.006391781847923994,-0.0053264847956597805,-0.008522375486791134,-0.05736890062689781,10.402894020080566,-0.21035264432430267
1681363058690398208,0.004261187743395567,-0.007457078900188208,0.008522375486791134,-0.133860781788826,10.422017097473145,-0.267721563577652
1681363058690398208,0.004261187743395567,-0.007457078900188208,0.008522375486791134,-0.133860781788826,10.422017097473145,-0.267721563577652
1681363058722337024,0.0021305938716977835,-0.010652969591319561,0.0021305938716977835,-0.09561483561992645,10.402894020080566,-0.22947560250759125
1681363058754272256,0.0010652969358488917,-0.006391781847923994,0.0053264847956597805,-0.05736890062689781,10.402894020080566,-0.22947560250759125
1681363058754272256,0.0010652969358488917,-0.006391781847923994,0.0053264847956597805,-0.05736890062689781,10.402894020080566,-0.22947560250759125
1681363058786210560,0.0053264847956597805,-0.010652969591319561,0.010652969591319561,-0.03824593499302864,10.383770942687988,-0.1912296712398529
1681363058818143232,0.003195890923961997,-0.013848859816789627,0.0053264847956597805,-0.07649186998605728,10.422017097473145,-0.24859857559204102
1681363058818143232,0.003195890923961997,-0.004261187743395567,0.004261187743395567,-0.07649186998605728,10.422017097473145,-0.24859857559204102
1681363058850075392,0.0053264847956597805,-0.008522375486791134,0.0021305938716977835,-0.07649186998605728,10.402894020080566,-0.21035264432430267
1681363058882004736,0.006391781847923994,-0.008522375486791134,-0.0053264847956597805,0.0,10.402894020080566,-0.21035264432430267
1681363058897971968,0.006391781847923994,-0.008522375486791134,-0.0053264847956597805,-0.01912296749651432,10.422017097473145,-0.1912296712398529
1681363058929905920,0.003195890923961997,-0.006391781847923994,-0.006391781847923994,-0.05736890062689781,10.402894020080566,-0.22947560250759125
1681363058961838848,0.0021305938716977835,-0.007457078900188208,-0.006391781847923994,-0.09561483561992645,10.422017097473145,-0.22947560250759125
1681363058961838848,0.0021305938716977835,-0.007457078900188208,-0.006391781847923994,-0.09561483561992645,10.422017097473145,-0.22947560250759125
1681363058993772544,0.004261187743395567,-0.006391781847923994,0.0021305938716977835,-0.15298373997211456,10.383770942687988,-0.21035264432430267
1681363059025705216,0.0021305938716977835,-0.004261187743395567,0.010652969591319561,-0.07649186998605728,10.422017097473145,-0.21035264432430267
1681363059025705216,0.0053264847956597805,-0.004261187743395567,0.008522375486791134,-0.07649186998605728,10.422017097473145,-0.21035264432430267
1681363059057640192,0.004261187743395567,-0.009587672539055347,-0.004261187743395567,0.0,10.402894020080566,-0.1912296712398529
1681363059089578240,0.003195890923961997,-0.004261187743395567,0.0021305938716977835,-0.05736890062689781,10.422017097473145,-0.22947560250759125
1681363059089578240,0.003195890923961997,-0.004261187743395567,0.0021305938716977835,-0.05736890062689781,10.422017097473145,-0.22947560250759125
1681363059121512448,0.003195890923961997,-0.009587672539055347,0.008522375486791134,-0.11473780125379562,10.402894020080566,-0.21035264432430267
1681363059153452032,0.004261187743395567,-0.006391781847923994,0.006391781847923994,-0.09561483561992645,10.422017097473145,-0.22947560250759125
1681363059153452032,0.004261187743395567,-0.006391781847923994,0.006391781847923994,-0.09561483561992645,10.422017097473145,-0.22947560250759125
1681363059185390336,0.0010652969358488917,-0.008522375486791134,-0.0010652969358488917,-0.01912296749651432,10.422017097473145,-0.21035264432430267
1681363059217326848,0.0010652969358488917,-0.006391781847923994,-0.007457078900188208,0.0,10.383770942687988,-0.1912296712398529
1681363059217326848,0.007457078900188208,-0.004261187743395567,-0.007457078900188208,0.0,10.383770942687988,-0.1912296712398529
1681363059249265408,0.0021305938716977835,-0.006391781847923994,-0.003195890923961997,-0.05736890062689781,10.402894020080566,-0.21035264432430267
1681363059281202176,0.004261187743395567,-0.0010652969358488917,0.0053264847956597805,-0.17210669815540314,10.402894020080566,-0.21035264432430267
1681363059297170176,0.0053264847956597805,-0.0021305938716977835,0.004261187743395567,-0.1912296712398529,10.402894020080566,-0.22947560250759125
1681363059329107456,0.004261187743395567,-0.006391781847923994,0.017044750973582268,-0.05736890062689781,10.422017097473145,-0.22947560250759125
1681363059361040128,0.004261187743395567,-0.0053264847956597805,0.003195890923961997,0.03824593499302864,10.383770942687988,-0.24859857559204102
1681363059361040128,0.004261187743395567,-0.0053264847956597805,0.003195890923961997,0.03824593499302864,10.383770942687988,-0.24859857559204102
1681363059392976896,0.0,-0.010652969591319561,-0.007457078900188208,0.01912296749651432,10.422017097473145,-0.21035264432430267
1681363059424916224,0.008522375486791134,-0.008522375486791134,-0.0021305938716977835,-0.15298373997211456,10.402894020080566,-0.1912296712398529
1681363059424916224,0.007457078900188208,-0.006391781847923994,0.0010652969358488917,-0.15298373997211456,10.402894020080566,-0.1912296712398529
1681363059456856064,0.004261187743395567,-0.006391781847923994,0.021305939182639122,-0.24859857559204102,10.402894020080566,-0.22947560250759125
1681363059488791040,0.004261187743395567,-0.006391781847923994,0.015979453921318054,-0.07649186998605728,10.422017097473145,-0.21035264432430267
1681363059488791040,0.003195890923961997,-0.008522375486791134,0.015979453921318054,-0.07649186998605728,10.422017097473145,-0.21035264432430267
1681363059520620288,0.006391781847923994,-0.007457078900188208,0.003195890923961997,0.09561483561992645,10.402894020080566,-0.22947560250759125
1681363059552552448,0.0053264847956597805,-0.007457078900188208,-0.004261187743395567,0.01912296749651432,10.402894020080566,-0.22947560250759125
1681363059552552448,0.0053264847956597805,-0.007457078900188208,-0.004261187743395567,0.01912296749651432,10.402894020080566,-0.22947560250759125
1681363059584483328,0.0053264847956597805,-0.007457078900188208,0.0,-0.11473780125379562,10.422017097473145,-0.22947560250759125
1681363059616416256,0.006391781847923994,-0.0053264847956597805,0.013848859816789627,-0.21035264432430267,10.422017097473145,-0.24859857559204102
1681363059616416256,0.006391781847923994,-0.0053264847956597805,0.013848859816789627,-0.21035264432430267,10.422017097473145,-0.24859857559204102
1681363059664313856,0.004261187743395567,-0.0053264847956597805,0.0010652969358488917,0.05736890062689781,10.402894020080566,-0.1912296712398529
1681363059680280576,0.006391781847923994,-0.003195890923961997,-0.014914157800376415,0.22947560250759125,10.269033432006836,-0.15298373997211456
1681363059696248320,0.006391781847923994,-0.0010652969358488917,-0.017044750973582268,0.3059674799442291,10.422017097473145,-0.3059674799442291
1681363059728185088,0.0021305938716977835,-0.009587672539055347,-0.011718266643583775,-0.3250904381275177,10.402894020080566,-0.17210669815540314
1681363059760122368,-0.0021305938716977835,-0.010652969591319561,0.0,-0.22947560250759125,10.479385375976562,-0.28684452176094055
1681363059760122368,-0.0021305938716977835,-0.010652969591319561,0.0,-0.22947560250759125,10.479385375976562,-0.28684452176094055
1681363059792056320,0.0021305938716977835,-0.0021305938716977835,-0.017044750973582268,0.3059674799442291,10.345525741577148,-0.17210669815540314
1681363059823993856,0.008522375486791134,-0.006391781847923994,-0.021305939182639122,-0.05736890062689781,10.383770942687988,-0.22947560250759125
1681363059823993856,0.008522375486791134,-0.006391781847923994,-0.021305939182639122,-0.05736890062689781,10.383770942687988,-0.22947560250759125
1681363059855927552,0.007457078900188208,-0.003195890923961997,-0.01811004802584648,-0.36333635449409485,10.517632484436035,-0.22947560250759125
1681363059887865600,0.006391781847923994,-0.008522375486791134,0.027697719633579254,-0.5163201093673706,10.402894020080566,-0.1912296712398529
1681363059887865600,0.006391781847923994,-0.009587672539055347,0.03728539124131203,-0.5163201093673706,10.402894020080566,-0.1912296712398529
1681363059919805440,0.0,-0.022371236234903336,0.06711370497941971,-0.15298373997211456,10.460262298583984,-0.28684452176094055
1681363059951736832,0.0053264847956597805,-0.004261187743395567,0.011718266643583775,0.22947560250759125,10.441140174865723,-0.267721563577652
1681363059951736832,0.0053264847956597805,-0.004261187743395567,0.011718266643583775,0.22947560250759125,10.441140174865723,-0.267721563577652
1681363059983671808,0.0,-0.004261187743395567,-0.03728539124131203,0.3250904381275177,10.402894020080566,-0.28684452176094055
1681363060015642368,0.0053264847956597805,-0.009587672539055347,-0.0351548008620739,0.09561483561992645,10.364648818969727,-0.11473780125379562
1681363060015642368,0.0053264847956597805,-0.009587672539055347,-0.0351548008620739,0.09561483561992645,10.364648818969727,-0.11473780125379562
1681363060063553024,0.0010652969358488917,-0.008522375486791134,-0.028763018548488617,-0.28684452176094055,10.498509407043457,-0.22947560250759125
1681363060095488000,0.0021305938716977835,-0.0053264847956597805,-0.025567127391695976,-0.3250904381275177,10.383770942687988,-0.1912296712398529
1681363060095488000,0.0053264847956597805,-0.009587672539055347,-0.02024064213037491,-0.3250904381275177,10.383770942687988,-0.1912296712398529
1681363060127423488,0.0010652969358488917,-0.008522375486791134,0.009587672539055347,-0.1912296712398529,10.422017097473145,-0.24859857559204102
1681363060159356416,0.003195890923961997,-0.011718266643583775,0.017044750973582268,-0.01912296749651432,10.383770942687988,-0.1912296712398529
1681363060159356416,0.003195890923961997,-0.011718266643583775,0.017044750973582268,-0.01912296749651432,10.383770942687988,-0.1912296712398529
1681363060191292160,0.0053264847956597805,-0.006391781847923994,0.027697719633579254,-0.22947560250759125,10.441140174865723,-0.22947560250759125
1681363060223228160,0.004261187743395567,-0.009587672539055347,0.02024064213037491,0.01912296749651432,10.402894020080566,-0.21035264432430267
1681363060223228160,0.004261187743395567,-0.009587672539055347,0.02024064213037491,0.01912296749651432,10.402894020080566,-0.21035264432430267
1681363060255166976,0.009587672539055347,-0.006391781847923994,0.0053264847956597805,0.0,10.441140174865723,-0.21035264432430267
1681363060287106048,0.0021305938716977835,-0.0010652969358488917,-0.012783563695847988,0.21035264432430267,10.383770942687988,-0.267721563577652
1681363060287106048,0.0021305938716977835,-0.0010652969358488917,-0.012783563695847988,0.21035264432430267,10.383770942687988,-0.267721563577652
1681363060319041024,0.006391781847923994,-0.007457078900188208,-0.039415985345840454,0.0,10.460262298583984,-0.1912296712398529
1681363060350975232,0.007457078900188208,-0.0021305938716977835,0.003195890923961997,-0.36333635449409485,10.345525741577148,-0.24859857559204102
1681363060350975232,0.006391781847923994,-0.004261187743395567,0.007457078900188208,-0.36333635449409485,10.345525741577148,-0.24859857559204102
1681363060382915328,0.0021305938716977835,-0.007457078900188208,0.012783563695847988,-0.267721563577652,10.517632484436035,-0.24859857559204102
1681363060414854656,0.0,-0.014914157800376415,0.030893610790371895,-0.22947560250759125,10.32640266418457,-0.22947560250759125
1681363060430825216,0.0,-0.014914157800376415,0.030893610790371895,-0.09561483561992645,10.402894020080566,-0.3059674799442291
1681363060462756864,-0.0010652969358488917,-0.004261187743395567,0.009587672539055347,0.3250904381275177,10.402894020080566,-0.1912296712398529
1681363060494686208,0.0021305938716977835,-0.004261187743395567,-0.02024064213037491,0.07649186998605728,10.345525741577148,-0.1912296712398529
1681363060494686208,0.0021305938716977835,-0.004261187743395567,-0.02024064213037491,0.07649186998605728,10.345525741577148,-0.1912296712398529
1681363060526461184,0.003195890923961997,-0.010652969591319561,-0.012783563695847988,-0.15298373997211456,10.460262298583984,-0.21035264432430267
1681363060558395136,0.0053264847956597805,0.003195890923961997,-0.021305939182639122,-0.07649186998605728,10.402894020080566,-0.1912296712398529
1681363060558395136,0.008522375486791134,0.0021305938716977835,-0.022371236234903336,-0.07649186998605728,10.402894020080566,-0.1912296712398529
1681363060590328320,0.0053264847956597805,-0.006391781847923994,0.012783563695847988,-0.3824593424797058,10.422017097473145,-0.1912296712398529
1681363060622259712,0.0021305938716977835,-0.011718266643583775,0.0351548008620739,-0.1912296712398529,10.402894020080566,-0.267721563577652
1681363060622259712,0.0021305938716977835,-0.011718266643583775,0.0351548008620739,-0.1912296712398529,10.402894020080566,-0.267721563577652
1681363060654194176,0.006391781847923994,-0.006391781847923994,0.021305939182639122,0.03824593499302864,10.460262298583984,-0.24859857559204102
1681363060686125568,0.003195890923961997,-0.009587672539055347,0.007457078900188208,0.07649186998605728,10.364648818969727,-0.267721563577652
1681363060686125568,0.003195890923961997,-0.009587672539055347,0.007457078900188208,0.07649186998605728,10.364648818969727,-0.267721563577652
1681363060718057984,0.0021305938716977835,-0.009587672539055347,-0.019175345078110695,0.133860781788826,10.441140174865723,-0.22947560250759125
1681363060749992192,0.0021305938716977835,-0.003195890923961997,-0.02663242444396019,-0.05736890062689781,10.364648818969727,-0.1912296712398529
1681363060749992192,0.0021305938716977835,-0.008522375486791134,-0.021305939182639122,-0.05736890062689781,10.364648818969727,-0.1912296712398529
1681363060781932032,0.0010652969358488917,-0.011718266643583775,-0.003195890923961997,-0.22947560250759125,10.441140174865723,-0.22947560250759125
1681363060813870080,0.003195890923961997,-0.0021305938716977835,-0.06498311460018158,0.49719715118408203,10.383770942687988,-0.24859857559204102
1681363060829839104,0.003195890923961997,-0.0021305938716977835,-0.06498311460018158,-0.15298373997211456,10.555877685546875,-0.24859857559204102
1681363060861774592,0.003195890923961997,-0.01811004802584648,-0.0021305938716977835,-0.4398282468318939,10.192541122436523,-0.21035264432430267
1681363060893709312,0.0010652969358488917,-0.011718266643583775,0.03302420303225517,-0.3442133963108063,10.555877685546875,-0.24859857559204102
1681363060893709312,0.0010652969358488917,-0.011718266643583775,0.03302420303225517,-0.3442133963108063,10.555877685546875,-0.24859857559204102
1681363060925649408,0.0053264847956597805,-0.009587672539055347,0.028763018548488617,-0.133860781788826,10.32640266418457,-0.1912296712398529
1681363060957586688,0.0021305938716977835,-0.010652969591319561,0.027697719633579254,0.03824593499302864,10.422017097473145,-0.22947560250759125
1681363060957586688,-0.0010652969358488917,-0.007457078900188208,0.027697719633579254,0.03824593499302864,10.422017097473145,-0.22947560250759125
1681363060989525248,0.0053264847956597805,-0.007457078900188208,0.0010652969358488917,0.24859857559204102,10.402894020080566,-0.21035264432430267
1681363061021561600,0.007457078900188208,-0.0021305938716977835,-0.022371236234903336,-0.07649186998605728,10.402894020080566,-0.1912296712398529
1681363061021561600,0.007457078900188208,-0.0021305938716977835,-0.022371236234903336,-0.07649186998605728,10.402894020080566,-0.1912296712398529
1681363061053496064,-0.0010652969358488917,-0.004261187743395567,-0.010652969591319561,-0.11473780125379562,10.441140174865723,-0.22947560250759125
1681363061085431296,0.006391781847923994,-0.004261187743395567,-0.012783563695847988,-0.1912296712398529,10.402894020080566,-0.1912296712398529
1681363061085431296,0.006391781847923994,-0.004261187743395567,-0.012783563695847988,-0.1912296712398529,10.402894020080566,-0.1912296712398529
1681363061117367552,0.0,-0.0053264847956597805,0.0053264847956597805,-0.133860781788826,10.441140174865723,-0.267721563577652
1681363061149300992,0.006391781847923994,-0.004261187743395567,0.003195890923961997,-0.01912296749651432,10.383770942687988,-0.21035264432430267
1681363061149300992,0.004261187743395567,-0.008522375486791134,0.0,-0.01912296749651432,10.383770942687988,-0.21035264432430267
1681363061197200896,0.0021305938716977835,-0.0053264847956597805,-0.019175345078110695,0.07649186998605728,10.422017097473145,-0.24859857559204102
1681363061229137664,0.006391781847923994,-0.0053264847956597805,-0.03835069015622139,-0.03824593499302864,10.402894020080566,-0.17210669815540314
1681363061229137664,0.006391781847923994,-0.003195890923961997,-0.03835069015622139,-0.03824593499302864,10.402894020080566,-0.17210669815540314
1681363061261071360,0.0053264847956597805,-0.012783563695847988,-0.021305939182639122,-0.3059674799442291,10.441140174865723,-0.28684452176094055
1681363061293004288,0.0021305938716977835,-0.01811004802584648,0.007457078900188208,-0.3250904381275177,10.422017097473145,-0.22947560250759125
1681363061293004288,0.0021305938716977835,-0.01811004802584648,0.007457078900188208,-0.3250904381275177,10.422017097473145,-0.22947560250759125
1681363061324939008,0.0021305938716977835,-0.004261187743395567,0.027697719633579254,-0.267721563577652,10.441140174865723,-0.24859857559204102
1681363061356871424,0.0010652969358488917,-0.011718266643583775,0.04474247246980667,-0.21035264432430267,10.402894020080566,-0.21035264432430267
1681363061356871424,0.0010652969358488917,-0.011718266643583775,0.04474247246980667,-0.21035264432430267,10.402894020080566,-0.21035264432430267
1681363061388803840,0.004261187743395567,-0.007457078900188208,0.017044750973582268,0.133860781788826,10.441140174865723,-0.1912296712398529
1681363061420739328,0.006391781847923994,-0.0021305938716977835,-0.007457078900188208,0.15298373997211456,10.383770942687988,-0.17210669815540314
1681363061420739328,0.004261187743395567,-0.003195890923961997,-0.007457078900188208,0.15298373997211456,10.383770942687988,-0.17210669815540314
1681363061452677888,-0.0010652969358488917,-0.008522375486791134,-0.02343653328716755,0.09561483561992645,10.383770942687988,-0.17210669815540314
1681363061484615424,0.0053264847956597805,0.0021305938716977835,-0.03195890784263611,-0.07649186998605728,10.422017097473145,-0.1912296712398529
1681363061484615424,0.0053264847956597805,0.0021305938716977835,-0.03195890784263611,-0.07649186998605728,10.422017097473145,-0.1912296712398529
1681363061516459520,0.0010652969358488917,-0.0010652969358488917,-0.019175345078110695,-0.22947560250759125,10.422017097473145,-0.21035264432430267
1681363061548398336,0.003195890923961997,-0.012783563695847988,0.0053264847956597805,-0.22947560250759125,10.402894020080566,-0.22947560250759125
1681363061564367104,0.003195890923961997,-0.012783563695847988,0.0053264847956597805,-0.21035264432430267,10.422017097473145,-0.24859857559204102
1681363061596301312,0.0010652969358488917,-0.007457078900188208,0.01811004802584648,-0.15298373997211456,10.422017097473145,-0.24859857559204102
1681363061628235520,0.0053264847956597805,-0.009587672539055347,0.015979453921318054,-0.11473780125379562,10.402894020080566,-0.22947560250759125
1681363061628235520,-0.0010652969358488917,-0.008522375486791134,0.02024064213037491,-0.11473780125379562,10.402894020080566,-0.22947560250759125
1681363061660171520,0.006391781847923994,-0.011718266643583775,0.009587672539055347,-0.01912296749651432,10.402894020080566,-0.22947560250759125
1681363061692103424,0.003195890923961997,-0.0053264847956597805,0.003195890923961997,-0.01912296749651432,10.383770942687988,-0.17210669815540314
1681363061692103424,0.003195890923961997,-0.0053264847956597805,0.003195890923961997,-0.01912296749651432,10.383770942687988,-0.17210669815540314
1681363061724038144,0.0021305938716977835,-0.006391781847923994,-0.010652969591319561,0.0,10.422017097473145,-0.22947560250759125
1681363061755975168,0.0021305938716977835,-0.010652969591319561,-0.007457078900188208,-0.09561483561992645,10.383770942687988,-0.24859857559204102
1681363061755975168,0.0021305938716977835,-0.010652969591319561,-0.007457078900188208,-0.09561483561992645,10.383770942687988,-0.24859857559204102
1681363061787909888,0.003195890923961997,-0.006391781847923994,-0.0021305938716977835,-0.1912296712398529,10.422017097473145,-0.267721563577652
1681363061819842816,0.006391781847923994,-0.008522375486791134,-0.0021305938716977835,-0.11473780125379562,10.402894020080566,-0.22947560250759125
1681363061819842816,0.0010652969358488917,-0.009587672539055347,-0.0021305938716977835,-0.11473780125379562,10.402894020080566,-0.22947560250759125
1681363061851779584,0.0053264847956597805,-0.010652969591319561,0.008522375486791134,-0.15298373997211456,10.402894020080566,-0.17210669815540314
1681363061883719168,0.0021305938716977835,-0.009587672539055347,0.012783563695847988,-0.09561483561992645,10.402894020080566,-0.21035264432430267
1681363061883719168,0.0021305938716977835,-0.009587672539055347,0.012783563695847988,-0.09561483561992645,10.402894020080566,-0.21035264432430267
1681363061915655680,0.007457078900188208,-0.003195890923961997,0.0010652969358488917,-0.05736890062689781,10.441140174865723,-0.1912296712398529
1681363061947592704,0.0010652969358488917,-0.007457078900188208,0.003195890923961997,-0.09561483561992645,10.402894020080566,-0.24859857559204102
1681363061963560704,0.0010652969358488917,-0.007457078900188208,0.003195890923961997,-0.07649186998605728,10.402894020080566,-0.267721563577652
1681363061995497984,0.0,-0.006391781847923994,0.004261187743395567,-0.11473780125379562,10.402894020080566,-0.24859857559204102
1681363062027392256,0.0021305938716977835,-0.006391781847923994,-0.0053264847956597805,-0.07649186998605728,10.422017097473145,-0.24859857559204102
1681363062027392256,0.0053264847956597805,-0.006391781847923994,-0.003195890923961997,-0.07649186998605728,10.422017097473145,-0.24859857559204102
1681363062059332608,0.0010652969358488917,-0.009587672539055347,-0.004261187743395567,-0.07649186998605728,10.383770942687988,-0.21035264432430267
1681363062091268096,0.004261187743395567,-0.007457078900188208,-0.006391781847923994,-0.09561483561992645,10.402894020080566,-0.1912296712398529
1681363062091268096,0.0021305938716977835,-0.010652969591319561,-0.006391781847923994,-0.09561483561992645,10.402894020080566,-0.1912296712398529
1681363062123203072,0.004261187743395567,-0.008522375486791134,-0.011718266643583775,-0.09561483561992645,10.402894020080566,-0.17210669815540314
1681363062155136768,0.0053264847956597805,0.0010652969358488917,-0.0010652969358488917,-0.17210669815540314,10.402894020080566,-0.1912296712398529
1681363062155136768,0.0053264847956597805,0.0010652969358488917,-0.0010652969358488917,-0.17210669815540314,10.402894020080566,-0.1912296712398529
1681363062187072000,0.003195890923961997,-0.0053264847956597805,0.0010652969358488917,-0.09561483561992645,10.402894020080566,-0.22947560250759125
1681363062219006720,0.004261187743395567,-0.009587672539055347,-0.0021305938716977835,-0.11473780125379562,10.402894020080566,-0.22947560250759125
1681363062219006720,0.004261187743395567,-0.009587672539055347,-0.0021305938716977835,-0.11473780125379562,10.402894020080566,-0.22947560250759125
1681363062250941696,-0.0010652969358488917,-0.006391781847923994,-0.003195890923961997,-0.11473780125379562,10.402894020080566,-0.24859857559204102
1681363062282879488,0.004261187743395567,-0.0053264847956597805,0.0010652969358488917,-0.133860781788826,10.422017097473145,-0.22947560250759125
1681363062282879488,0.0053264847956597805,-0.0053264847956597805,0.0,-0.133860781788826,10.422017097473145,-0.22947560250759125
1681363062330786304,0.0053264847956597805,-0.006391781847923994,0.003195890923961997,-0.09561483561992645,10.402894020080566,-0.1912296712398529
1681363062362721536,0.003195890923961997,-0.003195890923961997,0.0010652969358488917,-0.133860781788826,10.402894020080566,-0.21035264432430267
1681363062362721536,0.003195890923961997,-0.003195890923961997,0.0010652969358488917,-0.133860781788826,10.402894020080566,-0.21035264432430267
1681363062394655488,0.003195890923961997,-0.009587672539055347,0.007457078900188208,-0.11473780125379562,10.402894020080566,-0.21035264432430267
1681363062426594816,0.0021305938716977835,-0.011718266643583775,0.012783563695847988,-0.133860781788826,10.402894020080566,-0.22947560250759125
1681363062426594816,0.0021305938716977835,-0.011718266643583775,0.012783563695847988,-0.133860781788826,10.402894020080566,-0.22947560250759125
1681363062458532608,0.0021305938716977835,-0.003195890923961997,0.010652969591319561,-0.09561483561992645,10.422017097473145,-0.24859857559204102
1681363062490469632,0.0021305938716977835,-0.008522375486791134,0.010652969591319561,-0.07649186998605728,10.402894020080566,-0.22947560250759125
1681363062490469632,0.004261187743395567,-0.008522375486791134,0.010652969591319561,-0.07649186998605728,10.402894020080566,-0.22947560250759125
1681363062522359552,0.004261187743395567,-0.004261187743395567,0.004261187743395567,-0.03824593499302864,10.422017097473145,-0.1912296712398529
1681363062554299392,-0.0021305938716977835,-0.006391781847923994,0.0010652969358488917,-0.07649186998605728,10.422017097473145,-0.22947560250759125
1681363062554299392,-0.0021305938716977835,-0.006391781847923994,0.0010652969358488917,-0.07649186998605728,10.422017097473145,-0.22947560250759125
1681363062586244096,0.003195890923961997,-0.012783563695847988,0.015979453921318054,-0.15298373997211456,10.402894020080566,-0.22947560250759125
1681363062618189056,0.0021305938716977835,-0.009587672539055347,0.039415985345840454,-0.3442133963108063,10.402894020080566,-0.22947560250759125
1681363062618189056,0.0021305938716977835,-0.009587672539055347,0.039415985345840454,-0.3442133963108063,10.402894020080566,-0.22947560250759125
1681363062650125056,0.007457078900188208,-0.0010652969358488917,0.02024064213037491,0.03824593499302864,10.345525741577148,-0.21035264432430267
1681363062682064384,0.006391781847923994,-0.007457078900188208,0.01811004802584648,-0.05736890062689781,10.479385375976562,-0.22947560250759125
1681363062682064384,0.0021305938716977835,-0.008522375486791134,0.02024064213037491,-0.05736890062689781,10.479385375976562,-0.22947560250759125
1681363062729967360,0.007457078900188208,-0.014914157800376415,0.02663242444396019,-0.133860781788826,10.422017097473145,-0.1912296712398529
1681363062761905408,0.004261187743395567,-0.004261187743395567,0.014914157800376415,-0.05736890062689781,10.422017097473145,-0.267721563577652
1681363062761905408,0.004261187743395567,-0.004261187743395567,0.014914157800376415,-0.05736890062689781,10.422017097473145,-0.267721563577652
1681363062793840384,0.007457078900188208,-0.004261187743395567,0.02343653328716755,0.0,10.383770942687988,-0.1912296712398529
1681363062825775616,0.0021305938716977835,-0.013848859816789627,0.015979453921318054,0.03824593499302864,10.460262298583984,-0.24859857559204102
1681363062825775616,0.0021305938716977835,-0.013848859816789627,0.015979453921318054,0.03824593499302864,10.460262298583984,-0.24859857559204102
1681363062857711872,0.003195890923961997,-0.0053264847956597805,-0.0021305938716977835,0.01912296749651432,10.402894020080566,-0.21035264432430267
1681363062889648640,0.003195890923961997,-0.009587672539055347,-0.007457078900188208,-0.05736890062689781,10.441140174865723,-0.24859857559204102
1681363062889648640,0.004261187743395567,-0.007457078900188208,-0.004261187743395567,-0.05736890062689781,10.441140174865723,-0.24859857559204102
1681363062921581312,0.004261187743395567,-0.007457078900188208,-0.010652969591319561,-0.03824593499302864,10.383770942687988,-0.1912296712398529
1681363062953517312,0.0053264847956597805,-0.0053264847956597805,0.0,-0.09561483561992645,10.422017097473145,-0.21035264432430267
1681363062953517312,0.0053264847956597805,-0.0053264847956597805,0.0,-0.09561483561992645,10.422017097473145,-0.21035264432430267
1681363062985451008,-0.0010652969358488917,-0.010652969591319561,-0.012783563695847988,-0.01912296749651432,10.441140174865723,-0.267721563577652
1681363063017310720,0.0010652969358488917,-0.012783563695847988,-0.04048128426074982,0.09561483561992645,10.441140174865723,-0.21035264432430267
1681363063017310720,0.0010652969358488917,-0.012783563695847988,-0.04048128426074982,0.09561483561992645,10.441140174865723,-0.21035264432430267
1681363063049249536,0.006391781847923994,-0.006391781847923994,-0.004261187743395567,-0.133860781788826,10.383770942687988,-0.24859857559204102
1681363063081185024,0.0053264847956597805,0.003195890923961997,0.06178722158074379,-0.4015823304653168,10.345525741577148,-0.22947560250759125
1681363063097151488,0.004261187743395567,0.0010652969358488917,0.06498311460018158,-0.22947560250759125,10.441140174865723,-0.24859857559204102
1681363063129081088,0.004261187743395567,-0.007457078900188208,0.02982831560075283,0.0,10.441140174865723,-0.07649186998605728
1681363063161012992,0.010652969591319561,-0.008522375486791134,0.025567127391695976,0.03824593499302864,10.364648818969727,-0.24859857559204102
1681363063161012992,0.007457078900188208,-0.0021305938716977835,0.027697719633579254,0.03824593499302864,10.364648818969727,-0.24859857559204102
1681363063192940544,0.0,-0.003195890923961997,0.007457078900188208,0.24859857559204102,10.422017097473145,-0.21035264432430267
1681363063224877312,0.004261187743395567,-0.007457078900188208,-0.024501828476786613,0.0,10.402894020080566,-0.1912296712398529
1681363063224877312,0.004261187743395567,-0.007457078900188208,-0.024501828476786613,0.0,10.402894020080566,-0.1912296712398529
1681363063256812288,-0.004261187743395567,-0.007457078900188208,0.0053264847956597805,-0.24859857559204102,10.441140174865723,-0.3059674799442291
1681363063288745984,0.004261187743395567,-0.0053264847956597805,0.0053264847956597805,-0.09561483561992645,10.422017097473145,-0.1912296712398529
1681363063288745984,0.004261187743395567,-0.0053264847956597805,0.0053264847956597805,-0.09561483561992645,10.422017097473145,-0.1912296712398529
1681363063320682752,0.004261187743395567,-0.0053264847956597805,0.021305939182639122,-0.09561483561992645,10.383770942687988,-0.267721563577652
1681363063352615936,-0.0010652969358488917,-0.006391781847923994,0.025567127391695976,0.07649186998605728,10.422017097473145,-0.267721563577652
1681363063352615936,0.0,-0.008522375486791134,0.012783563695847988,0.07649186998605728,10.422017097473145,-0.267721563577652
1681363063384551680,0.003195890923961997,-0.010652969591319561,-0.04048128426074982,0.1912296712398529,10.422017097473145,-0.1912296712398529
1681363063416488960,-0.0053264847956597805,-0.006391781847923994,-0.054330144077539444,0.05736890062689781,10.441140174865723,-0.267721563577652
1681363063416488960,-0.0053264847956597805,-0.006391781847923994,-0.054330144077539444,0.05736890062689781,10.441140174865723,-0.267721563577652
1681363063448425472,-0.017044750973582268,-0.0053264847956597805,-0.13848860561847687,0.24859857559204102,10.460262298583984,-0.21035264432430267
1681363063480364544,-0.0053264847956597805,-0.010652969591319561,-0.2279735505580902,0.49719715118408203,10.383770942687988,-0.1912296712398529
1681363063496332032,-0.0053264847956597805,-0.010652969591319561,-0.2279735505580902,0.21035264432430267,10.192541122436523,-0.03824593499302864
1681363063528242432,0.015979453921318054,-0.021305939182639122,-0.05219954997301102,-1.2621159553527832,10.269033432006836,-0.267721563577652
1681363063560180480,0.011718266643583775,-0.012783563695847988,0.19814522564411163,-1.7784359455108643,10.536755561828613,-0.28684452176094055
1681363063560180480,0.010652969591319561,-0.006391781847923994,0.22584295272827148,-1.7784359455108643,10.536755561828613,-0.28684452176094055
1681363063592115200,0.0,-0.007457078900188208,0.22051645815372467,-0.4398282468318939,10.422017097473145,-0.22947560250759125
1681363063624051200,0.013848859816789627,-0.003195890923961997,0.10120321065187454,0.6310579776763916,10.441140174865723,-0.11473780125379562
1681363063624051200,0.013848859816789627,-0.003195890923961997,0.10120321065187454,0.6310579776763916,10.441140174865723,-0.11473780125379562
1681363063655989760,-0.021305939182639122,-0.012783563695847988,-0.04793836548924446,1.8549277782440186,10.364648818969727,-0.535443127155304
1681363063687923712,0.02024064213037491,-0.006391781847923994,-0.19175346195697784,0.8987794518470764,10.096927642822266,0.267721563577652
1681363063687923712,0.02024064213037491,-0.006391781847923994,-0.19175346195697784,0.8987794518470764,10.096927642822266,0.267721563577652
1681363063719857664,0.006391781847923994,0.003195890923961997,-0.022371236234903336,-1.128255009651184,10.536755561828613,-0.4015823304653168
1681363063751789568,-0.0010652969358488917,-0.0021305938716977835,0.06604840606451035,-1.3577306270599365,10.517632484436035,0.05736890062689781
1681363063751789568,0.008522375486791134,-0.0053264847956597805,0.08096256852149963,-1.3577306270599365,10.517632484436035,0.05736890062689781
1681363063783725312,0.019175345078110695,-0.010652969591319561,0.1320968121290207,-0.6501808762550354,10.288155555725098,-0.11473780125379562
1681363063815660032,-0.015979453921318054,-0.004261187743395567,0.0703096017241478,0.6884267926216125,10.61324691772461,-0.535443127155304
1681363063815660032,-0.015979453921318054,-0.004261187743395567,0.0703096017241478,0.6884267926216125,10.61324691772461,-0.535443127155304
1681363063863569408,0.012783563695847988,0.003195890923961997,-0.12463974207639694,1.070886254310608,10.211664199829102,-0.267721563577652
1681363063895513344,-0.0010652969358488917,-0.003195890923961997,-0.11185617744922638,-0.4398282468318939,10.594123840332031,-0.3250904381275177
1681363063895513344,-0.0010652969358488917,-0.003195890923961997,-0.11185617744922638,-0.4398282468318939,10.594123840332031,-0.3250904381275177
1681363063927451648,-0.007457078900188208,-0.006391781847923994,-0.05326484888792038,-0.7266727089881897,10.383770942687988,-0.17210669815540314
1681363063959387648,0.012783563695847988,-0.0010652969358488917,-0.019175345078110695,-0.8414105772972107,10.345525741577148,0.05736890062689781
1681363063959387648,0.015979453921318054,-0.003195890923961997,0.009587672539055347,-0.8414105772972107,10.345525741577148,0.05736890062689781
1681363063991327232,0.017044750973582268,-0.02343653328716755,0.22371235489845276,-0.8796564936637878,10.383770942687988,-0.36333635449409485
1681363064023222016,-0.013848859816789627,-0.02982831560075283,0.10972557961940765,0.7649186849594116,10.555877685546875,-0.3250904381275177
1681363064023222016,-0.011718266643583775,-0.021305939182639122,0.07776667922735214,0.7649186849594116,10.555877685546875,-0.3250904381275177
1681363064055161088,0.03195890784263611,0.021305939182639122,-0.021305939182639122,0.6119349598884583,10.23078727722168,-0.17210669815540314
1681363064087096320,-0.022371236234903336,-0.009587672539055347,-0.012783563695847988,0.3059674799442291,10.517632484436035,-0.4589512050151825
1681363064087096320,-0.022371236234903336,-0.009587672539055347,-0.012783563695847988,0.3059674799442291,10.517632484436035,-0.4589512050151825
1681363064119031296,0.02024064213037491,-0.024501828476786613,-0.06924430280923843,0.07649186998605728,10.32640266418457,0.15298373997211456
1681363064150968832,0.0,0.003195890923961997,0.0010652969358488917,-0.6693038940429688,10.517632484436035,-0.3442133963108063
1681363064150968832,0.0,0.003195890923961997,0.0010652969358488917,-0.6693038940429688,10.517632484436035,-0.3442133963108063
1681363064182898944,0.0,-0.006391781847923994,0.0468730665743351,-0.28684452176094055,10.422017097473145,-0.11473780125379562
1681363064214831104,0.008522375486791134,-0.011718266643583775,-0.025567127391695976,0.36333635449409485,10.345525741577148,-0.17210669815540314
1681363064230796288,0.0053264847956597805,-0.010652969591319561,-0.030893610790371895,0.4015823304653168,10.498509407043457,-0.36333635449409485
1681363064262728704,-0.003195890923961997,0.006391781847923994,-0.03622009605169296,0.21035264432430267,10.307279586791992,-0.22947560250759125
1681363064294662144,0.006391781847923994,-0.010652969591319561,-0.05539543926715851,-0.1912296712398529,10.441140174865723,-0.22947560250759125
1681363064294662144,0.006391781847923994,-0.010652969591319561,-0.05539543926715851,-0.1912296712398529,10.441140174865723,-0.22947560250759125
1681363064326593792,0.0053264847956597805,-0.017044750973582268,0.0351548008620739,-0.7840416431427002,10.402894020080566,-0.267721563577652
1681363064358525184,-0.0010652969358488917,-0.012783563695847988,0.09161553531885147,-0.28684452176094055,10.479385375976562,-0.3250904381275177
1681363064358525184,-0.0010652969358488917,-0.012783563695847988,0.09161553531885147,-0.28684452176094055,10.479385375976562,-0.3250904381275177
1681363064390454528,0.009587672539055347,-0.007457078900188208,0.02982831560075283,0.28684452176094055,10.364648818969727,-0.1912296712398529
1681363064422387200,0.0010652969358488917,-0.012783563695847988,0.0053264847956597805,0.4589512050151825,10.383770942687988,-0.28684452176094055
1681363064422387200,-0.0053264847956597805,-0.007457078900188208,-0.004261187743395567,0.4589512050151825,10.383770942687988,-0.28684452176094055
1681363064454319616,0.0,-0.006391781847923994,-0.0585913322865963,0.36333635449409485,10.402894020080566,-0.11473780125379562
1681363064486257152,0.003195890923961997,-0.007457078900188208,-0.06498311460018158,-0.17210669815540314,10.422017097473145,-0.133860781788826
1681363064486257152,0.003195890923961997,-0.007457078900188208,-0.06498311460018158,-0.17210669815540314,10.422017097473145,-0.133860781788826
1681363064518147072,-0.0021305938716977835,-0.003195890923961997,0.006391781847923994,-0.47807416319847107,10.441140174865723,-0.22947560250759125
1681363064550083072,0.008522375486791134,-0.007457078900188208,0.02024064213037491,-0.22947560250759125,10.364648818969727,-0.17210669815540314
1681363064550083072,0.008522375486791134,-0.007457078900188208,0.02024064213037491,-0.22947560250759125,10.364648818969727,-0.17210669815540314
1681363064582021632,0.007457078900188208,-0.009587672539055347,0.04900365695357323,-0.133860781788826,10.402894020080566,-0.28684452176094055
1681363064613957888,0.0021305938716977835,-0.009587672539055347,0.045807767659425735,0.0,10.441140174865723,-0.3059674799442291
1681363064629924864,0.004261187743395567,-0.010652969591319561,0.03835069015622139,0.133860781788826,10.441140174865723,-0.3059674799442291
1681363064661862656,0.004261187743395567,-0.008522375486791134,-0.0021305938716977835,0.11473780125379562,10.422017097473145,-0.3442133963108063
1681363064693797632,-0.021305939182639122,-0.010652969591319561,-0.007457078900188208,0.03824593499302864,10.441140174865723,-0.6310579776763916
1681363064693797632,-0.021305939182639122,-0.010652969591319561,-0.007457078900188208,0.03824593499302864,10.441140174865723,-0.6310579776763916
1681363064725731584,-0.014914157800376415,-0.028763018548488617,-0.007457078900188208,-0.07649186998605728,10.441140174865723,-0.1912296712398529
1681363064757666560,0.008522375486791134,-0.02343653328716755,-0.0021305938716977835,-0.09561483561992645,10.154295921325684,0.3824593424797058
1681363064757666560,0.008522375486791134,-0.02343653328716755,-0.0021305938716977835,-0.09561483561992645,10.154295921325684,0.3824593424797058
1681363064789599744,0.007457078900188208,0.004261187743395567,0.004261187743395567,0.133860781788826,10.498509407043457,-0.133860781788826
1681363064821533696,0.007457078900188208,0.004261187743395567,-0.012783563695847988,0.1912296712398529,10.307279586791992,0.09561483561992645
1681363064821533696,0.01811004802584648,-0.004261187743395567,-0.014914157800376415,0.1912296712398529,10.307279586791992,0.09561483561992645
1681363064853470720,0.011718266643583775,-0.004261187743395567,-0.030893610790371895,0.01912296749651432,10.441140174865723,-0.4589512050151825
1681363064885409024,0.0,-0.004261187743395567,0.011718266643583775,-0.3824593424797058,10.479385375976562,-0.49719715118408203
1681363064885409024,0.006391781847923994,0.004261187743395567,0.024501828476786613,-0.3824593424797058,10.479385375976562,-0.49719715118408203
1681363064917343744,-0.009587672539055347,-0.0053264847956597805,0.030893610790371895,-0.21035264432430267,10.498509407043457,-0.5545660853385925
1681363064949276160,0.007457078900188208,-0.02343653328716755,0.022371236234903336,-0.03824593499302864,10.383770942687988,-0.05736890062689781
1681363064949276160,0.007457078900188208,-0.02343653328716755,0.022371236234903336,-0.03824593499302864,10.383770942687988,-0.05736890062689781
1681363064997175296,-0.006391781847923994,-0.009587672539055347,0.012783563695847988,0.22947560250759125,10.479385375976562,-0.267721563577652
1681363065029078016,0.007457078900188208,0.003195890923961997,-0.021305939182639122,0.21035264432430267,10.345525741577148,0.03824593499302864
1681363065029078016,0.011718266643583775,0.0,-0.030893610790371895,0.21035264432430267,10.345525741577148,0.03824593499302864
1681363065061017856,-0.0053264847956597805,-0.017044750973582268,-0.03302420303225517,-0.133860781788826,10.517632484436035,-0.24859857559204102
1681363065092952832,0.0,-0.006391781847923994,-0.0010652969358488917,-0.21035264432430267,10.364648818969727,-0.11473780125379562
1681363065092952832,0.003195890923961997,0.0010652969358488917,0.003195890923961997,-0.21035264432430267,10.364648818969727,-0.11473780125379562
1681363065124886272,0.004261187743395567,0.011718266643583775,0.008522375486791134,-0.07649186998605728,10.383770942687988,-0.15298373997211456
1681363065156818944,0.009587672539055347,-0.010652969591319561,0.0,0.01912296749651432,10.422017097473145,-0.15298373997211456
1681363065156818944,0.009587672539055347,-0.010652969591319561,0.0,0.01912296749651432,10.422017097473145,-0.15298373997211456
1681363065188758272,-0.0010652969358488917,-0.019175345078110695,-0.009587672539055347,-0.03824593499302864,10.422017097473145,-0.3442133963108063
1681363065220694528,0.0021305938716977835,0.009587672539055347,0.02024064213037491,-0.133860781788826,10.402894020080566,-0.22947560250759125
1681363065220694528,0.0021305938716977835,0.009587672539055347,0.02024064213037491,-0.133860781788826,10.402894020080566,-0.22947560250759125
1681363065252627968,0.007457078900188208,-0.012783563695847988,-0.006391781847923994,0.07649186998605728,10.498509407043457,-0.42070528864860535
1681363065284565760,0.007457078900188208,-0.022371236234903336,0.010652969591319561,-0.07649186998605728,10.307279586791992,-0.11473780125379562
1681363065284565760,0.009587672539055347,-0.019175345078110695,0.011718266643583775,-0.07649186998605728,10.307279586791992,-0.11473780125379562
1681363065316499968,0.003195890923961997,0.003195890923961997,0.0053264847956597805,-0.01912296749651432,10.536755561828613,-0.24859857559204102
1681363065348434944,0.004261187743395567,0.0021305938716977835,0.009587672539055347,-0.01912296749651432,10.345525741577148,-0.1912296712398529
1681363065348434944,0.004261187743395567,0.0021305938716977835,0.009587672539055347,-0.01912296749651432,10.345525741577148,-0.1912296712398529
1681363065396327680,0.0,-0.007457078900188208,-0.0021305938716977835,0.15298373997211456,10.23078727722168,0.0
1681363065428261888,-0.0021305938716977835,-0.025567127391695976,-0.0351548008620739,-0.15298373997211456,10.498509407043457,0.09561483561992645
1681363065428261888,-0.0021305938716977835,-0.025567127391695976,-0.0351548008620739,-0.15298373997211456,10.498509407043457,0.09561483561992645
1681363065460194304,0.0,-0.007457078900188208,0.027697719633579254,-0.21035264432430267,10.307279586791992,0.1912296712398529
1681363065492124672,0.007457078900188208,-0.014914157800376415,-0.007457078900188208,0.11473780125379562,10.479385375976562,0.05736890062689781
1681363065492124672,0.0053264847956597805,-0.013848859816789627,-0.009587672539055347,0.11473780125379562,10.479385375976562,0.05736890062689781
1681363065524024064,0.006391781847923994,-0.019175345078110695,0.008522375486791134,-0.05736890062689781,10.383770942687988,-0.3250904381275177
1681363065555952128,-0.01811004802584648,0.017044750973582268,0.004261187743395567,0.21035264432430267,10.441140174865723,-0.3250904381275177
1681363065555952128,-0.01811004802584648,0.017044750973582268,0.004261187743395567,0.21035264432430267,10.441140174865723,-0.3250904381275177
1681363065587882240,0.02343653328716755,-0.012783563695847988,-0.028763018548488617,-0.01912296749651432,10.32640266418457,0.03824593499302864
1681363065619812864,-0.012783563695847988,-0.009587672539055347,0.03195890784263611,-0.3442133963108063,10.460262298583984,-0.49719715118408203
1681363065619812864,-0.012783563695847988,-0.009587672539055347,0.03195890784263611,-0.3442133963108063,10.460262298583984,-0.49719715118408203
1681363065651745024,0.014914157800376415,0.013848859816789627,0.017044750973582268,0.0,10.345525741577148,-0.22947560250759125
1681363065683680512,-0.004261187743395567,-0.012783563695847988,-0.009587672539055347,0.03824593499302864,10.402894020080566,-0.49719715118408203
1681363065683680512,-0.006391781847923994,-0.02024064213037491,-0.006391781847923994,0.03824593499302864,10.402894020080566,-0.49719715118408203
1681363065715615232,-0.006391781847923994,-0.013848859816789627,0.039415985345840454,-0.15298373997211456,10.460262298583984,-0.1912296712398529
1681363065747548928,-0.022371236234903336,-0.0010652969358488917,-0.028763018548488617,0.267721563577652,10.402894020080566,-0.09561483561992645
1681363065763515392,-0.022371236234903336,-0.0010652969358488917,-0.028763018548488617,0.15298373997211456,10.498509407043457,0.09561483561992645
1681363065795450624,0.012783563695847988,-0.007457078900188208,0.006391781847923994,-0.22947560250759125,10.383770942687988,0.3059674799442291
1681363065827386112,-0.004261187743395567,-0.007457078900188208,0.019175345078110695,0.09561483561992645,10.402894020080566,-0.11473780125379562
1681363065827386112,-0.004261187743395567,-0.007457078900188208,0.019175345078110695,0.09561483561992645,10.402894020080566,-0.11473780125379562
1681363065859319296,-0.0010652969358488917,0.009587672539055347,-0.0053264847956597805,-0.01912296749651432,10.460262298583984,0.28684452176094055
1681363065891256320,0.014914157800376415,0.014914157800376415,0.012783563695847988,0.03824593499302864,10.441140174865723,0.05736890062689781
1681363065891256320,0.010652969591319561,0.012783563695847988,0.006391781847923994,0.03824593499302864,10.441140174865723,0.05736890062689781
1681363065923189248,0.02663242444396019,0.017044750973582268,-0.006391781847923994,0.11473780125379562,10.249910354614258,0.1912296712398529
1681363065955130368,0.021305939182639122,0.022371236234903336,-0.021305939182639122,0.09561483561992645,10.498509407043457,-0.42070528864860535
1681363065955130368,0.01811004802584648,0.024501828476786613,-0.022371236234903336,0.09561483561992645,10.498509407043457,-0.42070528864860535
1681363065987064320,-0.008522375486791134,0.021305939182639122,-0.011718266643583775,-0.07649186998605728,10.460262298583984,-0.36333635449409485
1681363066018994944,-0.004261187743395567,0.024501828476786613,-0.034089501947164536,-0.01912296749651432,10.32640266418457,-0.4015823304653168
1681363066018994944,-0.004261187743395567,0.024501828476786613,-0.034089501947164536,-0.01912296749651432,10.32640266418457,-0.4015823304653168
1681363066050845696,0.008522375486791134,0.003195890923961997,0.02024064213037491,-0.4015823304653168,10.536755561828613,-0.11473780125379562
1681363066082778880,0.007457078900188208,-0.008522375486791134,0.034089501947164536,-0.07649186998605728,10.422017097473145,-0.24859857559204102
1681363066082778880,0.007457078900188208,-0.008522375486791134,0.034089501947164536,-0.07649186998605728,10.422017097473145,-0.24859857559204102
1681363066130677504,0.011718266643583775,0.0053264847956597805,-0.0021305938716977835,0.01912296749651432,10.383770942687988,-0.01912296749651432
1681363066146644992,0.003195890923961997,0.013848859816789627,0.004261187743395567,0.03824593499302864,10.402894020080566,-0.1912296712398529
1681363066162610688,-0.006391781847923994,0.010652969591319561,-0.0021305938716977835,0.05736890062689781,10.555877685546875,-0.3824593424797058
1681363066194540288,-0.0021305938716977835,0.006391781847923994,-0.004261187743395567,-0.03824593499302864,10.402894020080566,0.09561483561992645
1681363066226473216,-0.003195890923961997,0.012783563695847988,-0.0053264847956597805,0.07649186998605728,10.575000762939453,-0.3059674799442291
1681363066226473216,-0.003195890923961997,0.012783563695847988,-0.0053264847956597805,0.07649186998605728,10.575000762939453,-0.3059674799442291
1681363066258404096,0.013848859816789627,0.015979453921318054,-0.0010652969358488917,-0.133860781788826,10.269033432006836,0.22947560250759125
1681363066290333184,0.028763018548488617,0.027697719633579254,-0.0010652969358488917,0.07649186998605728,10.345525741577148,-0.4015823304653168
1681363066290333184,0.028763018548488617,0.027697719633579254,-0.0010652969358488917,0.07649186998605728,10.345525741577148,-0.4015823304653168
1681363066322262016,-0.007457078900188208,-0.015979453921318054,-0.04154658317565918,-0.133860781788826,10.498509407043457,-0.22947560250759125
1681363066354192896,0.021305939182639122,-0.009587672539055347,0.013848859816789627,-0.24859857559204102,10.364648818969727,-0.4015823304653168
1681363066354192896,0.01811004802584648,-0.003195890923961997,0.02024064213037491,-0.24859857559204102,10.364648818969727,-0.4015823304653168
1681363066386121472,-0.01811004802584648,0.003195890923961997,-0.0053264847956597805,0.03824593499302864,10.536755561828613,-0.6501808762550354
1681363066418054144,0.017044750973582268,0.009587672539055347,0.006391781847923994,-0.11473780125379562,10.383770942687988,-0.133860781788826
1681363066418054144,0.017044750973582268,0.009587672539055347,0.006391781847923994,-0.11473780125379562,10.383770942687988,-0.133860781788826
1681363066449984768,-0.01811004802584648,-0.003195890923961997,0.012783563695847988,-0.05736890062689781,10.460262298583984,-0.3442133963108063
1681363066481911296,0.009587672539055347,0.0,0.01811004802584648,-0.09561483561992645,10.288155555725098,0.21035264432430267
1681363066481911296,0.009587672539055347,0.0,0.01811004802584648,-0.09561483561992645,10.288155555725098,0.21035264432430267
1681363066529799936,-0.0021305938716977835,0.003195890923961997,0.010652969591319561,-0.03824593499302864,10.517632484436035,-0.28684452176094055
1681363066561734656,-0.02982831560075283,-0.011718266643583775,0.02024064213037491,-0.15298373997211456,10.402894020080566,0.47807416319847107
1681363066561734656,-0.010652969591319561,-0.011718266643583775,0.022371236234903336,-0.15298373997211456,10.402894020080566,0.47807416319847107
1681363066593666816,0.009587672539055347,0.006391781847923994,0.034089501947164536,0.09561483561992645,10.479385375976562,0.21035264432430267
1681363066625599744,0.0010652969358488917,0.008522375486791134,-0.004261187743395567,0.03824593499302864,10.383770942687988,0.03824593499302864
1681363066625599744,0.0010652969358488917,0.008522375486791134,-0.004261187743395567,0.03824593499302864,10.383770942687988,0.03824593499302864
1681363066657536512,0.008522375486791134,-0.006391781847923994,0.021305939182639122,-0.11473780125379562,10.345525741577148,0.01912296749651432
1681363066689467648,0.0021305938716977835,-0.024501828476786613,0.004261187743395567,0.03824593499302864,10.441140174865723,-0.267721563577652
1681363066689467648,0.0021305938716977835,-0.024501828476786613,0.004261187743395567,0.03824593499302864,10.441140174865723,-0.267721563577652
1681363066721402624,-0.027697719633579254,-0.02663242444396019,0.0053264847956597805,-0.133860781788826,10.517632484436035,-0.5928120017051697
1681363066753335808,-0.0021305938716977835,-0.02982831560075283,0.03622009605169296,-0.1912296712398529,10.32640266418457,-0.09561483561992645
1681363066753335808,-0.011718266643583775,-0.02982831560075283,0.03622009605169296,-0.1912296712398529,10.32640266418457,-0.09561483561992645
1681363066785268480,-0.0053264847956597805,-0.04367717355489731,0.019175345078110695,0.0,10.479385375976562,-0.36333635449409485
1681363066817204992,-0.003195890923961997,-0.06178722158074379,0.013848859816789627,-0.03824593499302864,10.364648818969727,-0.36333635449409485
1681363066817204992,-0.013848859816789627,-0.05646073818206787,0.012783563695847988,-0.03824593499302864,10.364648818969727,-0.36333635449409485
1681363066849142528,0.0,-0.0585913322865963,0.027697719633579254,-0.09561483561992645,10.422017097473145,-0.15298373997211456
1681363066897048576,-0.008522375486791134,-0.06178722158074379,0.025567127391695976,0.15298373997211456,10.364648818969727,-0.09561483561992645
1681363066928986112,-0.02663242444396019,-0.05219954997301102,-0.007457078900188208,0.3059674799442291,10.402894020080566,0.17210669815540314
1681363066960926720,0.011718266643583775,-0.045807767659425735,-0.024501828476786613,0.15298373997211456,10.364648818969727,-0.09561483561992645
1681363066960926720,0.011718266643583775,-0.045807767659425735,-0.024501828476786613,0.15298373997211456,10.364648818969727,-0.09561483561992645
1681363066992864000,0.009587672539055347,-0.05006895586848259,-0.004261187743395567,-0.05736890062689781,10.364648818969727,-0.15298373997211456
1681363067024741120,0.003195890923961997,-0.042611878365278244,-0.0053264847956597805,-0.03824593499302864,10.402894020080566,-0.09561483561992645
1681363067024741120,0.022371236234903336,-0.03195890784263611,-0.006391781847923994,-0.03824593499302864,10.402894020080566,-0.09561483561992645
1681363067056680960,0.0053264847956597805,-0.011718266643583775,-0.003195890923961997,-0.03824593499302864,10.441140174865723,-0.3824593424797058
1681363067088612352,-0.013848859816789627,-0.02982831560075283,0.011718266643583775,0.0,10.460262298583984,-0.36333635449409485
1681363067088612352,-0.013848859816789627,-0.02982831560075283,0.011718266643583775,0.0,10.460262298583984,-0.36333635449409485
1681363067120544512,-0.02343653328716755,-0.042611878365278244,-0.014914157800376415,0.11473780125379562,10.422017097473145,-0.17210669815540314
1681363067152474368,0.006391781847923994,-0.05219954997301102,-0.02982831560075283,0.05736890062689781,10.383770942687988,0.21035264432430267
1681363067152474368,0.006391781847923994,-0.05219954997301102,-0.02982831560075283,0.05736890062689781,10.383770942687988,0.21035264432430267
1681363067184407040,0.02982831560075283,-0.04367717355489731,-0.013848859816789627,-0.09561483561992645,10.460262298583984,0.07649186998605728
1681363067216339456,0.0053264847956597805,-0.04048128426074982,0.013848859816789627,-0.11473780125379562,10.383770942687988,-0.17210669815540314
1681363067216339456,0.013848859816789627,-0.030893610790371895,0.02343653328716755,-0.11473780125379562,10.383770942687988,-0.17210669815540314
1681363067248267520,0.010652969591319561,-0.028763018548488617,-0.009587672539055347,0.11473780125379562,10.422017097473145,-0.11473780125379562
1681363067280201472,0.003195890923961997,-0.02343653328716755,-0.013848859816789627,0.09561483561992645,10.422017097473145,-0.17210669815540314
1681363067296167936,0.003195890923961997,-0.02343653328716755,-0.013848859816789627,-0.01912296749651432,10.460262298583984,-0.21035264432430267
1681363067328098304,0.006391781847923994,-0.006391781847923994,0.0,0.05736890062689781,10.441140174865723,-0.42070528864860535
1681363067360032256,0.015979453921318054,-0.022371236234903336,-0.02663242444396019,-0.01912296749651432,10.383770942687988,-0.24859857559204102
1681363067360032256,0.015979453921318054,-0.022371236234903336,-0.02663242444396019,-0.01912296749651432,10.383770942687988,-0.24859857559204102
1681363067391967488,0.030893610790371895,-0.03728539124131203,-0.011718266643583775,-0.11473780125379562,10.32640266418457,-0.09561483561992645
1681363067423899904,0.015979453921318054,-0.019175345078110695,-0.003195890923961997,0.03824593499302864,10.498509407043457,-0.4015823304653168
1681363067423899904,0.02663242444396019,-0.010652969591319561,0.0053264847956597805,0.03824593499302864,10.498509407043457,-0.4015823304653168
1681363067455836672,0.011718266643583775,-0.0010652969358488917,-0.004261187743395567,0.03824593499302864,10.383770942687988,-0.4398282468318939
1681363067487765760,0.004261187743395567,-0.007457078900188208,-0.01811004802584648,-0.03824593499302864,10.460262298583984,-0.42070528864860535
1681363067487765760,0.004261187743395567,-0.007457078900188208,-0.01811004802584648,-0.03824593499302864,10.460262298583984,-0.42070528864860535
1681363067519697152,-0.02024064213037491,-0.009587672539055347,0.009587672539055347,-0.15298373997211456,10.65149211883545,-0.3059674799442291
1681363067551612160,-0.0010652969358488917,-0.011718266643583775,-0.017044750973582268,0.05736890062689781,10.211664199829102,0.15298373997211456
1681363067551612160,-0.0010652969358488917,-0.011718266643583775,-0.017044750973582268,0.05736890062689781,10.211664199829102,0.15298373997211456
1681363067583547904,-0.01811004802584648,-0.03195890784263611,0.0053264847956597805,-0.21035264432430267,10.555877685546875,-0.17210669815540314
1681363067615480832,-0.010652969591319561,-0.013848859816789627,0.05219954997301102,-0.1912296712398529,10.383770942687988,0.15298373997211456
1681363067615480832,-0.014914157800376415,-0.013848859816789627,0.03195890784263611,-0.1912296712398529,10.383770942687988,0.15298373997211456
1681363067663378688,0.06285251677036285,-0.034089501947164536,-0.04900365695357323,0.01912296749651432,10.211664199829102,0.05736890062689781
1681363067695315968,0.06711370497941971,-0.02663242444396019,0.034089501947164536,-0.3442133963108063,10.517632484436035,-0.5736890435218811
1681363067695315968,0.05646073818206787,-0.030893610790371895,0.0468730665743351,-0.3442133963108063,10.517632484436035,-0.5736890435218811
