timestamp_ns,gyro_x,gyro_y,gyro_z,accel_x,accel_y,accel_z
1680222940479649066,-0.0,-0.0,-0.0,0.09576171874999999,10.145762578125,-0.12946984374999998
1680222940519799947,-0.0,-0.0,-0.0,0.11031749999999999,10.141166015624998,-0.11989367187499998
1680222940562020063,-0.0,-0.0,-0.0,0.076609375,10.20819921875,-0.10074132812499999
1680222940580377101,0.0,0.0,-0.0,0.11031749999999999,10.107457890625,-0.067033203125
1680222940619188070,-0.0,-0.0,-0.0,0.04290125,10.021272343749999,-0.076609375
1680222940662718057,-0.0,-0.0,-0.0,0.090782109375,10.102861328125,-0.16739148437499998
1680222940679891109,-0.0,-0.0,0.0,0.1149140625,10.155338749999999,-0.067033203125
1680222940717339992,0.0,-0.0,-0.0,0.181947265625,10.0404246875,-0.05286046874999999
1680222940759576082,-0.0,-0.0,-0.0,0.028728515625,10.179470703124998,-0.09576171874999999
1680222940800009012,-0.0,-0.0,0.0,0.11031749999999999,10.045404296874999,-0.05286046874999999
1680222940820873022,-0.0,-0.0,-0.0,0.090782109375,10.088305546874999,-0.23940429687499998
1680222940860260009,0.0,0.0,0.0,0.076609375,10.09788171875,-0.21565539062499997
1680222940898715972,0.0,0.0,-0.0,0.10533789062499999,10.13158984375,-0.17237109374999998
1680222940917963981,-0.0,-0.0,-0.0,0.1149140625,10.184067265625,-0.14862218749999997
1680222940960917949,-0.0,-0.0,-0.0,0.11031749999999999,10.083708984374999,-0.19650304687499998
1680222940999725103,-0.0,-0.0,-0.0,0.14862218749999997,10.088305546874999,-0.124490234375
1680222941018099069,0.0,-0.0,-0.0,0.11031749999999999,10.102861328125,-0.13406640625
1680222941061081886,0.0,0.0,-0.0,0.139046015625,10.193643437499999,-0.21067578124999997
1680222941100147962,-0.0,-0.0,-0.0,0.076609375,10.16989453125,-0.19152343749999998
1680222941140491962,-0.0,-0.0,-0.0,0.10074132812499999,10.064556640625,-0.17696765625
1680222941160631895,0.0,0.0,-0.0,0.10074132812499999,10.078729375,-0.28728515624999995
1680222941201766967,-0.0,-0.0,-0.0,0.1149140625,10.13618640625,-0.004979609375
1680222941263216972,-0.0,-0.0,-0.0,0.090782109375,10.083708984374999,-0.10533789062499999
1680222941443491935,-0.0,-0.0,-0.0,0.08120593749999999,10.045404296874999,-0.09576171874999999
1680222941482162952,-0.0,-0.0,-0.0,0.139046015625,10.112437499999999,-0.13406640625
1680222941501188993,-0.0,-0.0,-0.0,0.076609375,10.126610234374999,-0.201099609375
1680222941542140960,0.0,0.0,-0.0,0.10074132812499999,10.236927734375,-0.11989367187499998
1680222941582266092,-0.0,-0.0,0.0,0.124490234375,10.102861328125,-0.2681328125
1680222941601835966,-0.0,-0.0,0.0,0.13406640625,10.09788171875,-0.1149140625
1680222941642841100,-0.0,-0.0,-0.0,0.08120593749999999,10.145762578125,-0.01915234375
1680222941681674003,-0.0,-0.0,0.0,0.1149140625,10.184067265625,-0.14862218749999997
1680222941704030036,-0.0,-0.0,-0.0,0.124490234375,10.088305546874999,-0.13406640625
1680222941741580963,-0.0,-0.0,-0.0,0.09576171874999999,10.16989453125,-0.10533789062499999
1680222941782762050,0.0,-0.0,0.0,0.1578153125,10.141166015624998,-0.13406640625
1680222941821669101,-0.0,-0.0,-0.0,0.05286046874999999,10.102861328125,-0.028728515625
1680222941843591928,-0.0,-0.0,-0.0,0.12946984374999998,10.20819921875,-0.21565539062499997
1680222941882287979,-0.0,-0.0,-0.0,0.124490234375,10.078729375,-0.12946984374999998
1680222941921367883,0.0,-0.0,0.0,0.15321875,10.122013671875,-0.201099609375
1680222941942411899,0.0,-0.0,-0.0,0.139046015625,10.088305546874999,0.023748906249999997
1680222941984035015,0.0,-0.0,-0.0,0.10533789062499999,10.09328515625,-0.16739148437499998
1680222942023427963,-0.0,-0.0,-0.0,0.12946984374999998,10.179470703124998,-0.2681328125
1680222942041928052,-0.0,-0.0,-0.0,0.11031749999999999,10.16989453125,-0.23940429687499998
1680222942080244064,-0.0,-0.0,-0.0,0.17237109374999998,10.102861328125,-0.10533789062499999
1680222942122062921,-0.0,-0.0,-0.0,0.11031749999999999,10.13158984375,-0.19152343749999998
1680222942162153005,-0.0,-0.0,-0.0,0.028728515625,10.083708984374999,-0.17237109374999998
1680222942182703971,-0.0,-0.0,-0.0,0.076609375,10.227351562499999,-0.15321875
1680222942221970081,0.0,-0.0,-0.0,0.18654382812499998,10.09328515625,-0.11031749999999999
1680222942262578964,-0.0,-0.0,0.0,0.0383046875,10.069153203125,-0.14364257812499998
1680222942283526897,-0.0,-0.0,-0.0,0.1149140625,10.155338749999999,-0.22523156249999998
1680222942400441884,0.0,-0.0,-0.0,0.028728515625,10.107457890625,-0.27311242187499996
1680222942462196111,-0.0,-0.0,-0.0,0.08120593749999999,10.088305546874999,-0.21565539062499997
1680222942500886917,-0.0,-0.0,-0.0,0.090782109375,10.13618640625,0.047880859374999994
1680222942524064064,-0.0,-0.0,-0.0,0.124490234375,10.164914921874999,-0.15321875
1680222942561974048,-0.0,-0.0,-0.0,0.10074132812499999,10.069153203125,-0.05745703125
1680222942602165937,0.0,-0.0,0.0,0.076609375,10.074132812499998,-0.06243664062499999
1680222942622605085,-0.0,-0.0,-0.0,0.11031749999999999,10.102861328125,-0.1578153125
1680222942661859989,-0.0,-0.0,-0.0,0.11031749999999999,10.126610234374999,-0.21067578124999997
1680222942700067043,-0.0,-0.0,-0.0,0.09576171874999999,10.122013671875,-0.14862218749999997
1680222942722332954,0.0,-0.0,0.0,0.023748906249999997,10.050000859374999,-0.22523156249999998
1680222942761579036,-0.0,-0.0,0.0,0.04290125,10.16989453125,-0.11031749999999999
1680222942800776004,-0.0,-0.0,-0.0,0.08120593749999999,10.05498046875,-0.1149140625
1680222942843154907,-0.0,-0.0,-0.0,0.14364257812499998,10.011696171875,-0.12946984374999998
1680222942862273931,0.0,-0.0,0.0,0.05745703125,10.164914921874999,-0.162794921875
1680222942900435924,-0.0,-0.0,-0.0,0.04290125,10.09328515625,-0.1149140625
1680222942942558050,-0.0,-0.0,-0.0,0.15321875,10.141166015624998,-0.10074132812499999
1680222942962799072,-0.0,-0.0,-0.0,0.05745703125,10.1170340625,-0.14364257812499998
1680222943001003980,0.0,-0.0,-0.0,0.09576171874999999,10.13158984375,-0.1149140625
1680222943043061017,-0.0,-0.0,-0.0,0.08618554687499999,10.09328515625,-0.09576171874999999
1680222943062273979,0.0,-0.0,-0.0,0.11031749999999999,10.05498046875,-0.17696765625
1680222943098843097,0.0,-0.0,-0.0,0.11031749999999999,10.13618640625,-0.10074132812499999
1680222943140898942,-0.0,-0.0,-0.0,0.14364257812499998,10.198623046875,-0.076609375
1680222943181427955,-0.0,-0.0,-0.0,0.0720128125,10.20819921875,-0.20607921875
1680222943200653076,-0.0,-0.0,-0.0,0.13406640625,10.09328515625,-0.2681328125
1680222943261509895,-0.0,-0.0,-0.0,0.090782109375,10.179470703124998,-0.06243664062499999
1680222943284512042,0.0,-0.0,0.0,0.1578153125,10.107457890625,-0.18654382812499998
1680222943481838941,-0.0,-0.0,-0.0,0.16739148437499998,10.045404296874999,-0.201099609375
1680222943520967960,-0.0,-0.0,-0.0,0.06243664062499999,10.179470703124998,-0.17237109374999998
1680222943541518926,-0.0,-0.0,-0.0,0.06243664062499999,10.150742187499999,-0.30184093749999996
1680222943581979036,0.0,-0.0,-0.0,0.17237109374999998,10.13158984375,-0.14862218749999997
1680222943622370958,-0.0,-0.0,-0.0,0.10533789062499999,10.09788171875,-0.10533789062499999
1680222943643560886,-0.0,-0.0,-0.0,0.10533789062499999,10.0404246875,-0.10074132812499999
1680222943676973104,0.0,0.0,-0.0,0.09576171874999999,10.122013671875,-0.19650304687499998
1680222943719507932,-0.0,-0.0,-0.0,0.076609375,10.155338749999999,-0.033708125
1680222943745636940,-0.0,0.0,-0.0,0.229828125,10.088305546874999,-0.22523156249999998
1680222943781955957,0.0,-0.0,-0.0,0.04290125,10.011696171875,-0.090782109375
1680222943820240974,0.0,0.0,-0.0,0.10074132812499999,10.1170340625,-0.19152343749999998
1680222943841629981,-0.0,-0.0,0.0,0.090782109375,10.13158984375,-0.01915234375
1680222943881931066,-0.0,-0.0,-0.0,0.0720128125,10.011696171875,-0.076609375
1680222943921272039,0.0,-0.0,-0.0,0.13406640625,10.155338749999999,-0.1149140625
1680222943962239027,-0.0,-0.0,-0.0,0.124490234375,10.122013671875,-0.08120593749999999
1680222943983943939,-0.0,-0.0,-0.0,0.08618554687499999,10.184067265625,-0.258556640625
1680222944022856950,-0.0,-0.0,-0.0,0.11989367187499998,10.13158984375,-0.05286046874999999
1680222944063393115,-0.0,-0.0,-0.0,0.09576171874999999,10.126610234374999,-0.05745703125
1680222944082961082,-0.0,-0.0,-0.0,0.10074132812499999,10.179470703124998,-0.11989367187499998
1680222944122138977,-0.0,-0.0,-0.0,0.11989367187499998,10.145762578125,-0.090782109375
1680222944164885044,-0.0,-0.0,-0.0,0.004979609375,10.064556640625,-0.11989367187499998
1680222944200881958,0.0,-0.0,-0.0,0.04290125,10.007099609374999,-0.15321875
1680222944221230983,-0.0,-0.0,-0.0,0.10074132812499999,10.09328515625,-0.19152343749999998
1680222944260394096,0.0,-0.0,-0.0,0.08618554687499999,10.09788171875,-0.13406640625
1680222944282267093,-0.0,-0.0,-0.0,0.028728515625,9.9975234375,-0.17696765625
1680222944462584018,-0.0,-0.0,0.0,0.1578153125,10.09788171875,-0.09576171874999999
1680222944503946065,-0.0,-0.0,-0.0,0.047880859374999994,10.088305546874999,-0.16739148437499998
1680222944524149894,-0.0,-0.0,-0.0,0.17237109374999998,10.164914921874999,-0.17696765625
1680222944562911033,-0.0,-0.0,-0.0,0.1149140625,10.189046874999999,-0.24898046875
1680222944602929115,-0.0,-0.0,-0.0,0.12946984374999998,10.059577031249999,-0.014555781249999998
1680222944640889883,0.0,0.0,-0.0,0.14862218749999997,10.141166015624998,-0.19152343749999998
1680222944660429954,0.0,-0.0,-0.0,0.20607921875,10.150742187499999,-0.04290125
1680222944700211048,-0.0,-0.0,-0.0,0.11031749999999999,10.078729375,-0.028728515625
1680222944740314006,-0.0,-0.0,-0.0,0.124490234375,10.083708984374999,-0.10074132812499999
1680222944762027025,0.0,-0.0,-0.0,0.18654382812499998,10.059577031249999,-0.13406640625
1680222944799455881,0.0,-0.0,-0.0,0.18654382812499998,10.102861328125,-0.11989367187499998
1680222944840826034,-0.0,-0.0,-0.0,0.11989367187499998,10.021272343749999,-0.067033203125
1680222944879941940,0.0,-0.0,-0.0,0.09576171874999999,10.122013671875,-0.1578153125
1680222944900290966,0.0,-0.0,-0.0,0.0720128125,10.236927734375,-0.124490234375
1680222944943247079,-0.0,-0.0,-0.0,0.14862218749999997,10.09788171875,-0.16739148437499998
1680222944983030080,-0.0,-0.0,-0.0,0.14364257812499998,10.126610234374999,-0.09576171874999999
1680222945003448963,-0.0,-0.0,0.0,0.014555781249999998,10.189046874999999,-0.14364257812499998
1680222945044640064,-0.0,-0.0,-0.0,0.08120593749999999,10.126610234374999,-0.23480773437499997
1680222945082072973,-0.0,-0.0,-0.0,0.139046015625,10.088305546874999,-0.38304687499999995
1680222945103141069,0.0,-0.0,-0.0,0.11989367187499998,10.126610234374999,-0.047880859374999994
1680222945141819000,0.0,0.0,-0.0,0.06243664062499999,10.09328515625,-0.11989367187499998
1680222945185096025,-0.0,-0.0,-0.0,0.06243664062499999,10.112437499999999,-0.12946984374999998
1680222945222903966,-0.0,-0.0,-0.0,0.11031749999999999,10.141166015624998,-0.1149140625
1680222945261539936,-0.0,-0.0,-0.0,0.08120593749999999,10.17449109375,-0.13406640625
1680222945283287048,-0.0,-0.0,-0.0,0.06243664062499999,10.179470703124998,-0.004979609375
1680222945481163024,-0.0,-0.0,-0.0,0.124490234375,10.112437499999999,-0.0720128125
1680222945520040988,-0.0,-0.0,-0.0,0.15321875,10.107457890625,-0.10533789062499999
1680222945560352087,0.0,-0.0,-0.0,0.0720128125,10.083708984374999,-0.08120593749999999
1680222945581974029,0.0,0.0,-0.0,0.06243664062499999,10.164914921874999,-0.124490234375
1680222945622920036,0.0,0.0,-0.0,0.16739148437499998,10.088305546874999,-0.004979609375
1680222945662385940,-0.0,-0.0,-0.0,0.10533789062499999,10.088305546874999,-0.124490234375
1680222945683099985,-0.0,-0.0,0.0,0.05745703125,10.102861328125,-0.17237109374999998
1680222945721148014,-0.0,-0.0,-0.0,0.1149140625,10.069153203125,-0.15321875
1680222945762126922,0.0,-0.0,-0.0,0.033708125,10.193643437499999,0.033708125
1680222945784472942,-0.0,-0.0,-0.0,0.17237109374999998,10.179470703124998,-0.139046015625
1680222945821578979,-0.0,-0.0,-0.0,0.10533789062499999,10.145762578125,-0.17237109374999998
1680222945863121986,-0.0,-0.0,-0.0,0.076609375,10.179470703124998,-0.09576171874999999
1680222945900949001,-0.0,-0.0,-0.0,0.139046015625,10.141166015624998,-0.22523156249999998
1680222945920641899,-0.0,-0.0,-0.0,0.139046015625,10.184067265625,-0.14364257812499998
1680222945960684061,0.0,0.0,-0.0,0.05286046874999999,10.155338749999999,-0.06243664062499999
1680222946002765893,0.0,-0.0,-0.0,0.090782109375,10.064556640625,-0.19650304687499998
1680222946029033899,-0.0,-0.0,-0.0,0.11031749999999999,10.150742187499999,-0.09576171874999999
1680222946063429117,0.0,-0.0,-0.0,0.05745703125,10.1170340625,-0.033708125
1680222946102080106,-0.0,-0.0,-0.0,0.0720128125,10.112437499999999,-0.1149140625
1680222946124919891,-0.0,-0.0,0.0,0.19650304687499998,10.064556640625,-0.19152343749999998
1680222946164120912,0.0,-0.0,-0.0,0.1578153125,10.107457890625,-0.13406640625
1680222946203058004,-0.0,-0.0,-0.0,0.090782109375,10.078729375,-0.21067578124999997
1680222946224962949,-0.0,-0.0,-0.0,0.139046015625,10.122013671875,-0.0383046875
1680222946263645887,0.0,-0.0,-0.0,0.047880859374999994,10.112437499999999,-0.08120593749999999
1680222946442903041,0.0,0.0,-0.0,0.17237109374999998,10.13618640625,-0.1149140625
1680222946462061882,-0.0,-0.0,-0.0,0.0720128125,10.164914921874999,0.004979609375
1680222946502337932,0.0,-0.0,-0.0,0.090782109375,10.069153203125,-0.0720128125
1680222946542081117,-0.0,-0.0,-0.0,0.076609375,10.141166015624998,-0.181947265625
1680222946561342954,-0.0,-0.0,-0.0,0.11031749999999999,10.09788171875,-0.10533789062499999
1680222946602977037,-0.0,-0.0,0.0,0.10533789062499999,10.1170340625,-0.18654382812499998
1680222946645414113,0.0,-0.0,-0.0,0.11031749999999999,10.145762578125,-0.08618554687499999
1680222946683747053,-0.0,-0.0,-0.0,0.19650304687499998,10.102861328125,-0.09576171874999999
1680222946704154014,-0.0,-0.0,-0.0,0.05745703125,10.164914921874999,-0.18654382812499998
1680222946744035959,-0.0,-0.0,-0.0,0.19152343749999998,10.17449109375,-0.033708125
1680222946783421993,-0.0,-0.0,-0.0,0.1149140625,10.088305546874999,-0.1149140625
1680222946803908109,0.0,0.0,-0.0,0.10074132812499999,10.141166015624998,-0.04290125
1680222946846545934,0.0,-0.0,-0.0,0.16739148437499998,10.1170340625,-0.13406640625
1680222946881127119,-0.0,-0.0,-0.0,0.11031749999999999,10.05498046875,-0.19650304687499998
1680222946902959108,-0.0,-0.0,-0.0,0.004979609375,10.069153203125,-0.09576171874999999
1680222946941489934,-0.0,-0.0,-0.0,0.124490234375,10.189046874999999,-0.17696765625
1680222946982886075,-0.0,-0.0,-0.0,0.0720128125,10.102861328125,-0.23940429687499998
1680222947025455951,0.0,-0.0,-0.0,0.028728515625,10.16989453125,-0.11989367187499998
1680222947048623085,-0.0,-0.0,-0.0,0.16739148437499998,10.13618640625,-0.13406640625
1680222947084117889,-0.0,-0.0,-0.0,0.08618554687499999,10.13618640625,-0.05745703125
1680222947122565031,0.0,0.0,-0.0,0.023748906249999997,10.122013671875,-0.1149140625
1680222947144925117,0.0,0.0,-0.0,0.139046015625,10.045404296874999,-0.21565539062499997
1680222947184731006,0.0,0.0,-0.0,0.17237109374999998,10.078729375,-0.17237109374999998
1680222947225416898,0.0,-0.0,-0.0,0.124490234375,10.193643437499999,-0.20607921875
1680222947263478994,0.0,-0.0,-0.0,0.17237109374999998,10.1170340625,-0.16739148437499998
1680222947285721063,-0.0,-0.0,-0.0,0.033708125,10.179470703124998,-0.19152343749999998
1680222947414834976,-0.0,-0.0,0.0,0.11989367187499998,10.083708984374999,-0.06243664062499999
1680222947461566925,-0.0,-0.0,-0.0,0.21067578124999997,10.126610234374999,-0.124490234375
1680222947481053113,-0.0,-0.0,-0.0,0.08120593749999999,10.09328515625,-0.201099609375
1680222947520567893,0.0,-0.0,-0.0,0.13406640625,10.078729375,-0.13406640625
1680222947561014890,-0.0,-0.0,-0.0,0.08120593749999999,10.13158984375,-0.090782109375
1680222947580923080,-0.0,-0.0,-0.0,0.090782109375,10.102861328125,-0.124490234375
1680222947622855901,0.0,-0.0,-0.0,0.01915234375,10.09328515625,-0.0720128125
1680222947664606094,-0.0,-0.0,-0.0,0.14364257812499998,10.069153203125,-0.19152343749999998
1680222947705827951,-0.0,-0.0,-0.0,0.11031749999999999,10.16989453125,-0.201099609375
1680222947722439050,-0.0,-0.0,0.0,0.08618554687499999,10.203219609375,-0.10074132812499999
1680222947762594938,0.0,-0.0,-0.0,0.19152343749999998,10.145762578125,-0.090782109375
1680222947802609920,0.0,-0.0,-0.0,0.090782109375,10.09788171875,-0.14364257812499998
1680222947822849035,-0.0,-0.0,-0.0,0.10533789062499999,10.13618640625,-0.15321875
1680222947862178087,-0.0,-0.0,-0.0,0.11031749999999999,10.145762578125,-0.033708125
1680222947903136968,-0.0,-0.0,-0.0,0.10533789062499999,10.09328515625,-0.1149140625
1680222947920639038,0.0,0.0,-0.0,0.08618554687499999,10.09328515625,-0.10533789062499999
1680222947965437889,-0.0,-0.0,-0.0,0.15321875,10.122013671875,-0.10074132812499999
1680222948003070116,-0.0,-0.0,-0.0,0.08618554687499999,10.074132812499998,-0.014555781249999998
1680222948044776916,-0.0,-0.0,-0.0,0.0720128125,10.09788171875,-0.1149140625
1680222948062936067,-0.0,-0.0,0.0,0.05286046874999999,10.09328515625,-0.08120593749999999
1680222948103091001,-0.0,-0.0,0.0,0.14364257812499998,10.122013671875,-0.11031749999999999
1680222948146646976,0.0,0.0,-0.0,0.09576171874999999,10.09788171875,-0.21565539062499997
1680222948163698911,-0.0,-0.0,-0.0,0.1149140625,10.126610234374999,-0.014555781249999998
1680222948205264091,-0.0,-0.0,-0.0,0.090782109375,10.126610234374999,-0.028728515625
1680222948268146991,-0.0,-0.0,-0.0,0.076609375,10.112437499999999,-0.08618554687499999
1680222948446186065,0.0,-0.0,-0.0,0.06243664062499999,10.155338749999999,-0.18654382812499998
1680222948485080003,-0.0,-0.0,-0.0,0.047880859374999994,10.164914921874999,-0.181947265625
1680222948504395008,-0.0,-0.0,-0.0,0.10074132812499999,10.164914921874999,-0.067033203125
1680222948542494058,-0.0,-0.0,-0.0,0.1149140625,10.164914921874999,-0.090782109375
1680222948582772016,-0.0,-0.0,-0.0,0.19650304687499998,10.050000859374999,-0.15321875
1680222948601357936,0.0,-0.0,-0.0,0.11989367187499998,10.09328515625,-0.10533789062499999
1680222948642453908,0.0,-0.0,-0.0,0.11031749999999999,10.141166015624998,-0.15321875
1680222948683178901,-0.0,-0.0,0.0,0.08618554687499999,10.122013671875,-0.20607921875
1680222948722728013,-0.0,-0.0,-0.0,0.1149140625,10.155338749999999,-0.11989367187499998
1680222948745620965,-0.0,-0.0,-0.0,0.05745703125,10.112437499999999,-0.11989367187499998
1680222948783958911,-0.0,-0.0,-0.0,0.124490234375,10.17449109375,-0.05745703125
1680222948824377059,-0.0,-0.0,-0.0,0.08618554687499999,10.09788171875,-0.1578153125
1680222948843216896,-0.0,-0.0,-0.0,0.08618554687499999,10.193643437499999,-0.15321875
1680222948882492065,0.0,0.0,-0.0,0.090782109375,10.155338749999999,-0.11031749999999999
1680222948922019004,0.0,-0.0,-0.0,0.090782109375,10.083708984374999,-0.12946984374999998
1680222948944560050,-0.0,-0.0,-0.0,0.11031749999999999,10.13618640625,-0.124490234375
1680222948984004020,-0.0,-0.0,-0.0,0.0383046875,10.193643437499999,-0.1149140625
1680222949025876045,-0.0,-0.0,-0.0,0.14364257812499998,10.107457890625,-0.14364257812499998
1680222949062222957,0.0,-0.0,-0.0,0.023748906249999997,10.09788171875,0.047880859374999994
1680222949084199905,-0.0,-0.0,-0.0,0.17696765625,10.1170340625,-0.15321875
1680222949124032020,0.0,-0.0,-0.0,0.08618554687499999,10.145762578125,-0.08120593749999999
1680222949165016889,-0.0,-0.0,-0.0,0.04290125,10.179470703124998,-0.18654382812499998
1680222949186894893,-0.0,-0.0,-0.0,0.004979609375,10.13618640625,-0.05286046874999999
1680222949223306894,0.0,0.0,-0.0,0.090782109375,10.078729375,-0.05745703125
1680222949263082027,0.0,0.0,-0.0,0.08120593749999999,10.059577031249999,-0.181947265625
1680222949285312891,0.0,0.0,-0.0,0.033708125,10.088305546874999,-0.15321875
1680222949465137958,-0.0,-0.0,-0.0,0.1149140625,10.13618640625,-0.229828125
1680222949505002975,-0.0,-0.0,-0.0,0.076609375,10.13618640625,-0.17237109374999998
1680222949523690938,-0.0,-0.0,-0.0,0.028728515625,10.155338749999999,-0.023748906249999997
1680222949563316106,-0.0,-0.0,-0.0,0.18654382812499998,10.069153203125,-0.14862218749999997
1680222949605180025,-0.0,-0.0,-0.0,0.17237109374999998,10.074132812499998,-0.10074132812499999
1680222949621970891,-0.0,-0.0,-0.0,0.08618554687499999,10.09328515625,-0.21565539062499997
1680222949662806987,-0.0,-0.0,-0.0,0.11031749999999999,10.078729375,-0.0720128125
1680222949703145027,0.0,0.0,-0.0,0.047880859374999994,10.150742187499999,-0.15321875
1680222949742465972,-0.0,-0.0,-0.0,0.1149140625,10.189046874999999,-0.1578153125
1680222949764029026,-0.0,-0.0,-0.0,0.06243664062499999,10.09328515625,-0.10074132812499999
1680222949805720090,-0.0,-0.0,-0.0,0.1149140625,10.13158984375,-0.13406640625
1680222949845061063,-0.0,-0.0,-0.0,0.18654382812499998,10.107457890625,-0.17237109374999998
1680222949862684011,-0.0,-0.0,-0.0,0.1149140625,10.102861328125,-0.24438390624999998
1680222949902048110,-0.0,-0.0,-0.0,0.09576171874999999,10.126610234374999,-0.08120593749999999
1680222949942063093,-0.0,-0.0,-0.0,0.023748906249999997,10.193643437499999,-0.05745703125
1680222949962084054,-0.0,-0.0,-0.0,0.05745703125,10.122013671875,-0.17237109374999998
1680222950001302957,0.0,-0.0,0.0,0.028728515625,10.164914921874999,-0.19152343749999998
1680222950043030977,-0.0,-0.0,-0.0,0.15321875,10.179470703124998,-0.18654382812499998
1680222950081362962,-0.0,-0.0,-0.0,0.076609375,10.1170340625,-0.23940429687499998
1680222950102746009,-0.0,-0.0,-0.0,0.12946984374999998,10.112437499999999,-0.0383046875
1680222950143297910,-0.0,-0.0,0.0,0.139046015625,10.179470703124998,-0.08120593749999999
1680222950184195995,0.0,-0.0,-0.0,0.13406640625,10.13618640625,-0.11989367187499998
1680222950204324960,0.0,-0.0,-0.0,0.076609375,10.145762578125,-0.14862218749999997
1680222950264127969,-0.0,-0.0,-0.0,0.124490234375,10.112437499999999,-0.05745703125
1680222950287184000,-0.0,-0.0,-0.0,0.13406640625,10.145762578125,-0.162794921875
1680222950397773027,-0.0,-0.0,-0.0,0.1578153125,10.069153203125,-0.08120593749999999
1680222950485555887,-0.0,-0.0,-0.0,0.04290125,10.17449109375,-0.23480773437499997
1680222950526922941,-0.0,-0.0,-0.0,0.09576171874999999,10.16989453125,-0.0720128125
1680222950543730974,0.0,-0.0,0.0,0.028728515625,10.141166015624998,-0.14364257812499998
1680222950583229064,-0.0,-0.0,-0.0,0.05745703125,10.088305546874999,-0.1578153125
1680222950622380018,-0.0,-0.0,-0.0,0.08120593749999999,10.078729375,-0.1578153125
1680222950642846107,-0.0,-0.0,-0.0,0.0720128125,10.203219609375,-0.18654382812499998
1680222950686824083,0.0,-0.0,-0.0,0.14862218749999997,10.141166015624998,-0.033708125
1680222950722973108,-0.0,-0.0,-0.0,0.08618554687499999,10.074132812499998,-0.21067578124999997
1680222950742103099,-0.0,-0.0,-0.0,0.09576171874999999,10.107457890625,-0.09576171874999999
1680222950782921075,-0.0,-0.0,-0.0,0.139046015625,10.05498046875,-0.253960078125
1680222950823152065,-0.0,-0.0,0.0,0.139046015625,10.126610234374999,-0.18654382812499998
1680222950861998081,0.0,-0.0,-0.0,0.090782109375,10.126610234374999,-0.076609375
1680222950886044979,-0.0,-0.0,0.0,0.0383046875,10.069153203125,-0.13406640625
1680222950924384117,-0.0,-0.0,-0.0,0.10074132812499999,10.145762578125,-0.19650304687499998
1680222950963709115,-0.0,-0.0,-0.0,0.08618554687499999,10.1170340625,-0.11031749999999999
1680222950984998941,-0.0,-0.0,-0.0,0.17696765625,10.179470703124998,-0.181947265625
1680222951026135921,-0.0,-0.0,-0.0,0.047880859374999994,10.141166015624998,-0.15321875
1680222951063606023,0.0,-0.0,-0.0,0.09576171874999999,10.09788171875,-0.201099609375
1680222951084419965,-0.0,-0.0,-0.0,0.0383046875,10.126610234374999,-0.076609375
1680222951124134063,-0.0,-0.0,-0.0,0.04290125,10.126610234374999,-0.32099328125
1680222951163518905,0.0,-0.0,-0.0,0.023748906249999997,10.141166015624998,-0.08618554687499999
1680222951204747915,0.0,-0.0,-0.0,0.1578153125,10.145762578125,-0.23480773437499997
1680222951224392890,-0.0,-0.0,-0.0,0.10074132812499999,10.030848515625,-0.0720128125
1680222951263005971,0.0,-0.0,-0.0,0.10074132812499999,10.25110046875,-0.11989367187499998
1680222951408787012,0.0,0.0,-0.0,0.13406640625,10.102861328125,-0.05745703125
1680222951445713996,0.0,-0.0,-0.0,0.0720128125,10.189046874999999,-0.20607921875
1680222951463970899,-0.0,-0.0,-0.0,0.11989367187499998,10.088305546874999,-0.17696765625
1680222951504276037,-0.0,-0.0,-0.0,0.10533789062499999,10.088305546874999,-0.18654382812499998
1680222951543339967,-0.0,-0.0,-0.0,0.11989367187499998,10.145762578125,-0.21067578124999997
1680222951564192056,-0.0,-0.0,-0.0,0.047880859374999994,10.155338749999999,-0.124490234375
1680222951603940010,0.0,-0.0,-0.0,0.06243664062499999,10.150742187499999,-0.258556640625
1680222951643753051,-0.0,-0.0,0.0,0.10533789062499999,10.126610234374999,-0.124490234375
1680222951665469884,0.0,-0.0,-0.0,0.14862218749999997,10.064556640625,-0.201099609375
1680222951703443050,-0.0,-0.0,-0.0,0.06243664062499999,10.102861328125,-0.162794921875
1680222951747415065,-0.0,-0.0,-0.0,0.139046015625,10.126610234374999,-0.14862218749999997
1680222951782987117,-0.0,-0.0,-0.0,0.090782109375,10.141166015624998,-0.17696765625
1680222951802015066,0.0,-0.0,-0.0,0.04290125,10.064556640625,-0.13406640625
1680222951842421054,0.0,0.0,-0.0,0.06243664062499999,10.09328515625,-0.18654382812499998
1680222951883176088,0.0,-0.0,-0.0,0.10533789062499999,10.13158984375,-0.17696765625
1680222951903589010,0.0,-0.0,-0.0,0.047880859374999994,10.059577031249999,0.08120593749999999
1680222951944076061,0.0,-0.0,0.0,0.12946984374999998,10.13158984375,-0.19650304687499998
1680222951984936952,0.0,-0.0,-0.0,0.09576171874999999,10.189046874999999,-0.16739148437499998
1680222952004503011,-0.0,-0.0,-0.0,0.18654382812499998,10.09328515625,-0.21565539062499997
1680222952044802904,0.0,0.0,-0.0,0.12946984374999998,10.09328515625,-0.08618554687499999
1680222952084673881,0.0,-0.0,-0.0,0.033708125,10.102861328125,-0.124490234375
1680222952124478101,-0.0,-0.0,-0.0,0.1149140625,10.083708984374999,-0.21067578124999997
1680222952143548011,0.0,-0.0,-0.0,0.05745703125,10.078729375,-0.10533789062499999
1680222952184626102,-0.0,-0.0,-0.0,0.12946984374999998,10.155338749999999,-0.14364257812499998
1680222952227513074,-0.0,-0.0,-0.0,0.14364257812499998,10.155338749999999,-0.028728515625
1680222952264334917,0.0,-0.0,-0.0,0.0383046875,10.155338749999999,-0.21565539062499997
1680222952284332036,0.0,0.0,-0.0,0.06243664062499999,10.122013671875,-0.21067578124999997
1680222952425775051,-0.0,-0.0,0.0,0.0383046875,10.088305546874999,-0.30184093749999996
1680222952464404106,-0.0,-0.0,-0.0,0.1149140625,10.145762578125,-0.15321875
1680222952482548952,0.0,-0.0,-0.0,0.12946984374999998,10.155338749999999,-0.05286046874999999
1680222952523390054,0.0,0.0,-0.0,0.090782109375,10.102861328125,-0.12946984374999998
1680222952565398931,-0.0,-0.0,-0.0,0.06243664062499999,10.107457890625,-0.15321875
1680222952585345029,-0.0,-0.0,-0.0,0.08618554687499999,10.107457890625,-0.21067578124999997
1680222952624111890,-0.0,-0.0,-0.0,0.24438390624999998,10.126610234374999,-0.1149140625
1680222952665160894,0.0,-0.0,-0.0,0.05745703125,10.09788171875,-0.014555781249999998
1680222952684051990,-0.0,-0.0,-0.0,0.13406640625,10.102861328125,-0.090782109375
1680222952723257064,-0.0,-0.0,-0.0,0.15321875,10.150742187499999,-0.14862218749999997
1680222952764775991,-0.0,-0.0,-0.0,0.076609375,10.13158984375,-0.17237109374999998
1680222952803577899,-0.0,-0.0,-0.0,0.124490234375,10.141166015624998,-0.047880859374999994
1680222952823152065,-0.0,-0.0,0.0,0.124490234375,10.0404246875,-0.181947265625
1680222952862044095,-0.0,-0.0,-0.0,0.1149140625,10.00212,-0.253960078125
1680222952904504060,-0.0,-0.0,-0.0,0.05745703125,10.074132812499998,-0.14364257812499998
1680222952922961950,0.0,0.0,-0.0,0.076609375,10.09788171875,-0.14364257812499998
1680222952960621118,-0.0,-0.0,-0.0,0.10533789062499999,10.164914921874999,-0.162794921875
1680222953007204055,0.0,0.0,-0.0,0.14364257812499998,10.155338749999999,-0.09576171874999999
1680222953023669958,-0.0,-0.0,-0.0,0.090782109375,10.088305546874999,-0.124490234375
1680222953063510894,0.0,-0.0,-0.0,0.13406640625,10.107457890625,-0.10533789062499999
1680222953104882955,-0.0,-0.0,-0.0,0.124490234375,10.189046874999999,-0.067033203125
1680222953122967958,0.0,0.0,-0.0,0.08618554687499999,10.13618640625,-0.162794921875
1680222953165824890,-0.0,-0.0,-0.0,0.11031749999999999,10.069153203125,-0.19152343749999998
1680222953204425096,0.0,-0.0,-0.0,0.14364257812499998,10.155338749999999,-0.05286046874999999
1680222953262486934,-0.0,-0.0,-0.0,0.05745703125,10.09328515625,-0.13406640625
1680222953446180105,-0.0,-0.0,-0.0,0.090782109375,10.09328515625,-0.15321875
1680222953465658903,0.0,-0.0,-0.0,0.090782109375,10.13618640625,-0.18654382812499998
1680222953504511117,-0.0,-0.0,-0.0,0.10533789062499999,10.126610234374999,-0.124490234375
1680222953546014070,-0.0,-0.0,-0.0,0.139046015625,10.05498046875,-0.162794921875
1680222953586437940,-0.0,-0.0,-0.0,0.06243664062499999,10.122013671875,-0.014555781249999998
1680222953606657981,0.0,-0.0,-0.0,0.22523156249999998,10.107457890625,-0.28268859375
1680222953645160913,-0.0,-0.0,-0.0,0.10074132812499999,10.126610234374999,-0.1578153125
1680222953683368921,-0.0,-0.0,-0.0,0.090782109375,10.198623046875,-0.047880859374999994
1680222953704813003,0.0,0.0,-0.0,0.0720128125,10.112437499999999,-0.0383046875
1680222953744771957,0.0,-0.0,-0.0,0.17696765625,10.13158984375,-0.06243664062499999
1680222953789325952,0.0,0.0,-0.0,0.076609375,10.155338749999999,-0.08618554687499999
1680222953807770013,0.0,-0.0,-0.0,0.09576171874999999,10.184067265625,-0.19650304687499998
1680222953848257064,-0.0,-0.0,-0.0,0.090782109375,10.074132812499998,-0.24438390624999998
1680222953885700941,0.0,-0.0,-0.0,0.05745703125,10.09328515625,-0.1149140625
1680222953923204898,-0.0,-0.0,-0.0,0.1149140625,10.107457890625,-0.22025195312499998
1680222953950094938,-0.0,-0.0,-0.0,0.139046015625,10.164914921874999,-0.05745703125
1680222953983541965,-0.0,-0.0,-0.0,0.17237109374999998,10.16989453125,-0.17237109374999998
1680222954023096084,0.0,-0.0,-0.0,0.17696765625,10.141166015624998,-0.05745703125
1680222954042994022,-0.0,-0.0,0.0,0.0720128125,10.16989453125,-0.1578153125
1680222954081969022,0.0,-0.0,-0.0,0.04290125,10.1170340625,-0.009576171875
1680222954122474908,-0.0,-0.0,-0.0,0.1578153125,10.09328515625,-0.139046015625
1680222954164201021,0.0,-0.0,0.0,0.14862218749999997,10.150742187499999,-0.139046015625
1680222954187212944,-0.0,-0.0,0.0,0.11031749999999999,10.150742187499999,-0.076609375
1680222954227343082,-0.0,-0.0,-0.0,0.076609375,10.09788171875,-0.16739148437499998
1680222954261831045,-0.0,-0.0,-0.0,0.090782109375,10.179470703124998,-0.162794921875
1680222954283138036,0.0,-0.0,-0.0,0.11031749999999999,10.164914921874999,-0.076609375
1680222954426294088,0.0,-0.0,-0.0,0.09576171874999999,10.203219609375,-0.05286046874999999
1680222954464010000,-0.0,-0.0,-0.0,0.14364257812499998,10.09328515625,-0.004979609375
1680222954483768939,-0.0,-0.0,-0.0,0.11989367187499998,10.1170340625,-0.139046015625
1680222954527806997,0.0,0.0,-0.0,0.14862218749999997,10.1170340625,-0.01915234375
1680222954565426111,-0.0,-0.0,-0.0,0.19650304687499998,10.030848515625,-0.090782109375
1680222954608520984,0.0,-0.0,-0.0,0.21067578124999997,10.179470703124998,-0.04290125
1680222954625488042,0.0,-0.0,-0.0,0.0720128125,10.13618640625,-0.14364257812499998
1680222954662538051,-0.0,-0.0,-0.0,0.12946984374999998,10.112437499999999,-0.162794921875
1680222954704315900,-0.0,-0.0,-0.0,0.09576171874999999,10.09788171875,-0.1578153125
1680222954723516941,0.0,-0.0,-0.0,0.10533789062499999,10.155338749999999,-0.14862218749999997
1680222954766062021,-0.0,-0.0,-0.0,0.0720128125,10.126610234374999,-0.139046015625
1680222954804438114,-0.0,-0.0,-0.0,0.1149140625,10.107457890625,-0.22523156249999998
1680222954823137998,-0.0,-0.0,-0.0,0.1149140625,10.155338749999999,-0.258556640625
1680222954864433050,0.0,-0.0,-0.0,0.090782109375,10.150742187499999,-0.17237109374999998
1680222954905692100,-0.0,-0.0,-0.0,0.14862218749999997,10.17449109375,-0.10533789062499999
1680222954945128917,-0.0,-0.0,-0.0,0.076609375,10.026251953125,-0.067033203125
1680222954969234943,-0.0,-0.0,-0.0,0.033708125,10.09328515625,-0.12946984374999998
1680222955002201080,-0.0,-0.0,0.0,0.08618554687499999,10.088305546874999,-0.14364257812499998
1680222955042568922,-0.0,-0.0,-0.0,0.15321875,10.16989453125,-0.14862218749999997
1680222955063013076,0.0,-0.0,-0.0,0.14862218749999997,10.102861328125,-0.14364257812499998
1680222955102163076,0.0,0.0,-0.0,0.05745703125,10.246503906249998,-0.124490234375
1680222955144140005,-0.0,-0.0,-0.0,0.08120593749999999,10.107457890625,-0.19650304687499998
1680222955162982940,-0.0,-0.0,-0.0,0.11989367187499998,10.193643437499999,-0.19152343749999998
1680222955202866077,-0.0,-0.0,-0.0,0.076609375,10.1170340625,-0.20607921875
1680222955260303974,0.0,-0.0,-0.0,0.090782109375,10.069153203125,-0.1578153125
1680222955283943891,-0.0,-0.0,0.0,0.076609375,10.112437499999999,-0.24438390624999998
1680222955407444000,-0.0,-0.0,-0.0,0.090782109375,10.1170340625,-0.1578153125
1680222955449187040,0.0,0.0,0.0,0.014555781249999998,10.141166015624998,-0.01915234375
1680222955487410068,-0.0,-0.0,-0.0,0.04290125,10.107457890625,-0.21067578124999997
1680222955509207963,0.0,0.0,-0.0,0.1149140625,10.059577031249999,-0.162794921875
1680222955545908927,-0.0,-0.0,-0.0,0.04290125,10.141166015624998,-0.1578153125
1680222955588265895,-0.0,-0.0,-0.0,0.14364257812499998,10.1170340625,-0.31601367187499996
1680222955627221107,0.0,0.0,-0.0,0.1578153125,10.1170340625,-0.22523156249999998
1680222955646572113,0.0,0.0,-0.0,0.10533789062499999,10.035828124999998,-0.21067578124999997
1680222955688277959,-0.0,-0.0,-0.0,0.139046015625,10.09788171875,-0.162794921875
1680222955721833944,0.0,-0.0,-0.0,0.05745703125,10.164914921874999,-0.21067578124999997
1680222955745245933,-0.0,-0.0,-0.0,0.14862218749999997,10.050000859374999,-0.11989367187499998
1680222955785348892,-0.0,-0.0,-0.0,0.09576171874999999,10.155338749999999,-0.16739148437499998
1680222955825448036,-0.0,-0.0,-0.0,0.11989367187499998,10.21279578125,-0.19152343749999998
1680222955849282026,-0.0,-0.0,-0.0,0.12946984374999998,10.141166015624998,-0.16739148437499998
1680222955887428045,0.0,-0.0,-0.0,0.04290125,10.0404246875,-0.21067578124999997
1680222955924622058,-0.0,-0.0,-0.0,0.11989367187499998,10.1170340625,-0.06243664062499999
1680222955966696023,-0.0,-0.0,-0.0,0.10533789062499999,10.112437499999999,-0.22523156249999998
1680222955988023042,-0.0,-0.0,-0.0,0.10533789062499999,10.17449109375,-0.22025195312499998
1680222956025677919,0.0,-0.0,-0.0,0.11031749999999999,10.126610234374999,-0.08120593749999999
1680222956066632032,-0.0,-0.0,-0.0,0.090782109375,10.155338749999999,-0.12946984374999998
1680222956085988044,-0.0,-0.0,-0.0,0.13406640625,10.064556640625,-0.17696765625
1680222956124677896,0.0,0.0,-0.0,0.1578153125,10.13618640625,-0.08618554687499999
1680222956164515018,-0.0,-0.0,-0.0,0.19650304687499998,10.189046874999999,-0.06243664062499999
1680222956184571027,-0.0,-0.0,-0.0,0.15321875,10.122013671875,-0.08618554687499999
1680222956225624084,0.0,-0.0,-0.0,0.10533789062499999,10.13618640625,-0.139046015625
1680222956261636972,0.0,-0.0,-0.0,0.09576171874999999,10.13618640625,-0.0720128125
1680222956406861066,-0.0,-0.0,0.0,0.14364257812499998,10.1170340625,-0.14364257812499998
1680222956425561904,-0.0,-0.0,-0.0,0.090782109375,10.1170340625,-0.229828125
1680222956465306997,0.0,0.0,-0.0,0.06243664062499999,10.074132812499998,0.0383046875
1680222956505213975,0.0,-0.0,-0.0,0.05745703125,10.107457890625,-0.24438390624999998
1680222956524661064,-0.0,-0.0,-0.0,0.05745703125,10.1170340625,-0.28268859375
1680222956564578056,0.0,-0.0,0.0,0.076609375,10.09788171875,-0.19152343749999998
1680222956605824947,0.0,-0.0,-0.0,0.06243664062499999,10.035828124999998,-0.0383046875
1680222956645813941,0.0,0.0,-0.0,0.14364257812499998,10.09788171875,-0.1149140625
1680222956664663076,-0.0,-0.0,-0.0,0.22025195312499998,10.16989453125,-0.162794921875
1680222956702990055,-0.0,-0.0,-0.0,0.12946984374999998,10.1170340625,-0.05745703125
1680222956743916034,-0.0,-0.0,-0.0,0.13406640625,10.189046874999999,0.014555781249999998
1680222956764417886,0.0,-0.0,-0.0,0.0383046875,10.141166015624998,-0.21067578124999997
1680222956804574012,-0.0,-0.0,-0.0,0.06243664062499999,10.16989453125,0.033708125
1680222956850495100,-0.0,-0.0,-0.0,0.11989367187499998,10.164914921874999,-0.16739148437499998
1680222956866925001,0.0,-0.0,-0.0,0.05286046874999999,10.09788171875,-0.11989367187499998
1680222956905504941,0.0,0.0,-0.0,0.10533789062499999,10.179470703124998,-0.10533789062499999
1680222956945595979,0.0,-0.0,-0.0,0.076609375,10.13158984375,-0.181947265625
1680222956986152887,0.0,0.0,-0.0,0.1149140625,10.141166015624998,-0.11031749999999999
1680222957005074024,0.0,-0.0,0.0,0.21565539062499997,10.09788171875,-0.090782109375
1680222957048717021,0.0,-0.0,-0.0,0.09576171874999999,10.145762578125,-0.21565539062499997
1680222957085064888,0.0,-0.0,-0.0,0.01915234375,10.150742187499999,-0.09576171874999999
1680222957105834960,-0.0,-0.0,-0.0,0.047880859374999994,10.155338749999999,-0.201099609375
1680222957143204927,0.0,-0.0,0.0,0.124490234375,10.09788171875,-0.20607921875
1680222957185259103,-0.0,-0.0,-0.0,0.124490234375,10.1170340625,-0.22025195312499998
1680222957204641103,0.0,-0.0,-0.0,0.17237109374999998,10.198623046875,-0.11989367187499998
1680222957262670040,0.0,-0.0,-0.0,0.15321875,10.112437499999999,-0.1149140625
1680222957284811973,-0.0,-0.0,-0.0,0.12946984374999998,10.1170340625,-0.028728515625
1680222957415102005,-0.0,-0.0,-0.0,0.08120593749999999,10.09788171875,0.009576171875
1680222957444315910,-0.0,-0.0,-0.0,0.13406640625,10.083708984374999,-0.023748906249999997
1680222957484868049,-0.0,-0.0,-0.0,0.14862218749999997,10.20819921875,-0.14364257812499998
1680222957524739027,-0.0,-0.0,0.0,0.124490234375,10.203219609375,-0.19650304687499998
1680222957543530941,-0.0,-0.0,0.0,0.04290125,10.102861328125,-0.1578153125
1680222957583273887,-0.0,-0.0,-0.0,0.0720128125,10.112437499999999,-0.11031749999999999
1680222957625777959,0.0,-0.0,-0.0,0.10074132812499999,10.155338749999999,-0.19152343749999998
1680222957660607099,0.0,-0.0,-0.0,0.090782109375,10.078729375,-0.124490234375
1680222957688723087,0.0,-0.0,0.0,0.08120593749999999,10.16989453125,-0.19650304687499998
1680222957726025104,-0.01,-0.0,-0.0,0.090782109375,10.155338749999999,-0.009576171875
1680222957766726016,0.0,0.0,-0.0,0.1578153125,10.050000859374999,-0.10074132812499999
1680222957784707069,0.01,-0.01,0.0,0.139046015625,10.01667578125,-0.14862218749999997
1680222957823481082,-0.01,-0.01,0.0,-0.10074132812499999,10.155338749999999,-0.009576171875
1680222957865497112,0.01,0.0,0.0,0.124490234375,10.337286015624999,-0.004979609375
1680222957885077953,-0.0,-0.0,-0.0,0.14364257812499998,10.1170340625,0.028728515625
1680222957928922891,-0.0,0.0,-0.0,0.033708125,10.141166015624998,-0.11989367187499998
1680222957968199968,-0.0,0.01,-0.0,0.201099609375,10.189046874999999,-0.023748906249999997
1680222958006057024,0.01,-0.0,-0.01,0.05745703125,9.9975234375,-0.06243664062499999
1680222958027730941,0.0,0.01,-0.0,0.05745703125,10.189046874999999,-0.19152343749999998
1680222958067612886,-0.0,0.01,-0.0,0.21565539062499997,10.059577031249999,-0.10533789062499999
1680222958106725931,-0.0,-0.01,-0.01,0.139046015625,10.16989453125,0.076609375
1680222958125225067,0.01,-0.02,-0.01,0.09576171874999999,10.112437499999999,0.13406640625
1680222958168447971,-0.01,-0.01,0.01,0.076609375,10.203219609375,0.076609375
1680222958206744909,0.01,-0.01,-0.0,0.11989367187499998,10.189046874999999,-0.05745703125
1680222958225596904,0.0,-0.0,-0.01,0.009576171875,10.21279578125,0.047880859374999994
1680222958261131048,0.0,-0.0,-0.01,0.10533789062499999,10.480928593749999,-0.35431835937499995
1680222958404970884,0.0,-0.01,0.02,-0.24898046875,10.691604374999999,-0.42633117187499997
1680222958445303916,0.01,-0.0,-0.0,0.10533789062499999,9.877629765624999,-1.0966632031249999
1680222958464989900,0.0,0.0,-0.0,0.04290125,10.050000859374999,-1.000901484375
1680222958504363059,-0.02,-0.01,-0.0,0.13406640625,10.13158984375,-0.258556640625
1680222958544847965,-0.02,0.01,0.01,0.05286046874999999,10.164914921874999,0.32558984375
1680222958564793109,-0.01,0.0,0.01,0.08120593749999999,10.222371953125,0.24898046875
1680222958606378078,0.01,-0.01,-0.0,0.08120593749999999,10.17449109375,0.124490234375
1680222958645292043,0.0,0.0,-0.01,0.0383046875,10.3085575,0.009576171875
1680222958687680006,0.02,-0.0,-0.01,0.0383046875,10.011696171875,-0.483788203125
1680222958706903934,0.01,-0.01,-0.01,-0.004979609375,10.026251953125,-0.22025195312499998
1680222958746428012,-0.0,0.0,0.0,0.01915234375,10.193643437499999,-0.388026484375
1680222958787018060,-0.01,-0.0,-0.01,0.16739148437499998,10.09788171875,-0.05286046874999999
1680222958807491064,-0.01,-0.01,-0.0,0.14862218749999997,10.074132812499998,0.090782109375
1680222958846693038,-0.01,-0.0,-0.01,0.047880859374999994,10.236927734375,0.49336437499999997
1680222958887278079,0.01,0.01,-0.01,-0.560397578125,14.661119140624999,-0.009576171875
1680222958906934022,0.03,-0.0,-0.02,0.009576171875,10.643723515625,0.6799082031249999
1680222958945336103,-0.01,-0.01,-0.01,0.27770898437499997,9.853880859375,-0.560397578125
1680222958986634016,0.01,-0.0,-0.01,0.7323856249999999,9.561999140625,-0.7277890625
1680222959026237964,0.02,0.01,-0.01,0.722809453125,9.528291015625,0.04290125
1680222959049053907,-0.01,0.01,-0.02,0.665352421875,9.159799921874999,-0.35431835937499995
1680222959084949016,0.01,-0.01,0.01,0.522092890625,10.193643437499999,0.32099328125
1680222959127525091,-0.01,-0.01,-0.0,-0.09576171874999999,10.222371953125,0.009576171875
1680222959145663976,-0.0,-0.0,-0.0,-0.27311242187499996,10.26565625,-1.503458984375
1680222959188740968,-0.01,-0.01,-0.01,-0.11031749999999999,10.17449109375,1.0342265625
1680222959227283954,0.01,0.0,0.0,0.545841796875,9.86805359375,-1.9631152343749998
1680222959265974044,0.0,0.0,-0.0,0.201099609375,9.882609375,-2.9349051562499997
1680222959284045934,-0.02,-0.01,-0.01,-0.292264765625,10.030848515625,-1.709538203125
1680222959425730943,-0.01,-0.01,0.01,1.1108359374999999,11.89360546875,3.1601367187499996
1680222959467200994,0.01,-0.0,0.01,0.1149140625,8.623534296874999,-0.43590734375
1680222959484800100,0.01,-0.0,0.0,1.4172734374999998,11.252001953125,-2.039724609375
1680222959523507118,-0.01,-0.01,-0.01,0.392623046875,9.298462890624998,-2.657196171875
1680222959564125061,0.01,0.01,-0.0,-1.0200538281249998,9.523694453125,-3.5240312499999997
1680222959585942029,-0.01,0.01,-0.01,0.9051397656249999,11.496002812499999,4.7164561718749995
1680222959623035907,0.01,-0.01,-0.0,0.253960078125,9.753522578124999,2.365314453125
1680222959666358947,-0.0,-0.02,-0.01,-1.4509815625,9.068634765625,-2.269552734375
1680222959687119960,0.01,-0.02,-0.0,2.025551875,9.293866328124999,-1.39812109375
1680222959729506015,-0.01,0.01,0.0,1.613776484375,8.130169921875,4.050720703124999
1680222959767353057,0.02,-0.01,0.05,-0.9051397656249999,10.773193359374998,1.9726914062499998
1680222959806930065,0.06,0.01,0.03,-0.067033203125,8.096844843749999,0.42633117187499997
1680222959823879003,0.0,-0.0,0.04,-0.181947265625,9.848901249999999,1.4268496093749998
1680222959864240884,0.01,-0.02,0.03,0.7086367187499999,9.90635828125,0.30184093749999996
1680222959904977083,0.03,0.0,0.01,0.340145625,9.691085937499999,4.9459012499999995
1680222959924340963,-0.04,0.01,-0.01,1.939366328125,9.480410156249999,-7.302022578124999
1680222959963015079,0.02,0.01,-0.01,2.38944640625,14.555781249999999,4.970033203124999
1680222960009646892,-0.06,-0.0,-0.02,0.4979609375,10.835246953124999,-1.43182921875
1680222960025374889,-0.0,0.01,-0.01,1.1924249218749998,9.940066406249999,3.1268116406249997
1680222960067600011,-0.04,0.01,-0.02,-1.326491328125,11.371512578125,-2.111737421875
1680222960105895042,-0.05,-0.0,-0.03,3.0547988281249996,12.113857421874998,2.5568378906249998
1680222960147380113,0.03,0.01,0.0,-0.9051397656249999,8.474912109375,4.213515624999999
1680222960169807910,0.03,0.01,-0.03,1.27861046875,9.696065546875,-6.109597656249999
1680222960207009077,-0.06,0.02,0.01,-3.5290108593749996,11.160836796875,-6.804061640624999
1680222960262201070,0.04,0.02,0.02,0.335166015625,11.711658203125,6.5022207031249994
1680222960318490982,0.0,0.01,0.01,0.8189542187499999,13.15766015625,-2.710056640625
1680222960446800947,0.08,-0.02,0.03,-1.3360675,8.551521484375,-0.622451171875
1680222960487473011,0.01,0.01,0.01,-0.06243664062499999,6.4401671093749995,-5.376828984375
1680222960508867979,-0.1,0.02,-0.02,-0.5125167187499999,12.171314453125,-2.571010625
1680222960545877933,-0.02,0.01,0.01,-1.115815546875,10.715736328124999,0.22523156249999998
1680222960587560892,-0.0,0.02,-0.01,2.4227714843749997,14.30220421875,1.288186640625
1680222960605796098,0.06,0.01,-0.02,-1.249881953125,14.177713984374998,-4.8838476562499995
1680222960646354913,-0.03,0.02,0.03,0.6082784375,10.394743046875,6.387306640625
1680222960685313940,0.05,-0.01,0.01,0.19650304687499998,10.275232421875,4.563237421875
1680222960707483053,0.0,0.01,-0.02,2.6859246875,9.097363281249999,-4.467475703124999
1680222960745830059,-0.01,0.02,0.0,5.410537109374999,8.886687499999999,-2.8824277343749998
1680222960785571098,-0.03,-0.02,0.0,-1.24030578125,9.183548828125,4.955477421875
1680222960825326919,0.01,-0.02,-0.01,-2.250400390625,12.856202265624999,2.58556640625
1680222960846015930,-0.06,-0.02,0.02,-1.556319453125,12.300401249999998,-1.2977628125
1680222960888433933,-0.06,0.03,-0.01,4.074852656249999,13.11935546875,3.4524014843749997
1680222960928288936,-0.03,0.01,-0.03,0.9817491406249998,8.661838984374999,2.8728515624999997
1680222960947983026,0.04,-0.0,-0.01,-1.537167109375,8.269215937499999,-2.5376855468749997
1680222960986783981,0.05,0.03,0.02,-2.55185828125,9.561999140625,-1.302359375
1680222961027668952,-0.02,0.01,0.02,3.2896065624999995,9.66733703125,4.069873046874999
1680222961050259113,-0.03,-0.01,-0.01,-1.4172734374999998,8.781349609374999,-3.5673155468749993
1680222961085062980,0.01,-0.04,-0.01,0.330569453125,14.962960078124999,0.9530206249999998
1680222961125349998,0.0,-0.0,-0.01,-2.0301484375,11.572612187499999,8.053560546875
1680222961166467905,0.0,0.04,-0.01,-0.37347070312499997,9.9975234375,-2.523129765625
1680222961186970949,0.0,0.03,-0.02,0.023748906249999997,8.853362421875,0.67033203125
1680222961229078054,0.01,0.01,-0.02,0.6799082031249999,9.380051875,0.464635859375
1680222961265157938,-0.02,0.0,-0.0,-1.3119355468749998,12.075552734374998,5.15198046875
1680222961320091962,0.01,0.0,-0.0,-1.1587167968749998,7.895745234374999,-1.3789687499999999
1680222961427001953,-0.04,-0.04,-0.03,-0.253960078125,11.256598515624999,3.782587890625
1680222961468374013,-0.05,-0.0,0.01,-2.4419238281249998,9.782251093749998,2.5135535937499998
1680222961508193969,-0.03,0.01,0.0,-1.230729609375,9.298462890624998,-1.2161738281249999
1680222961527406930,-0.0,0.0,-0.01,4.390866328124999,8.398302734375,-2.503977421875
1680222961566229104,0.03,-0.01,0.01,-0.622451171875,11.208717656249998,2.752957890625
1680222961606195926,-0.05,0.01,-0.01,0.392623046875,7.670513671875,-2.595142578125
1680222961625303030,-0.05,0.01,-0.01,3.552759765625,10.648703124999999,-0.388026484375
1680222961666627883,-0.03,-0.01,0.01,0.9384648437499999,9.111919062499998,1.7620156249999999
1680222961705703973,0.08,-0.0,0.02,-1.0679346875,11.639645390624999,-4.194363281249999
1680222961724597930,-0.02,0.0,0.0,-2.231248046875,10.260676640624999,-6.550101562499999
1680222961765402078,-0.03,-0.01,-0.01,0.023748906249999997,11.1466640625,5.046642578125
1680222961806191921,0.01,0.0,-0.03,2.8295672656249997,11.218293828124999,1.89148546875
1680222961846733093,-0.02,0.01,-0.01,1.2640546874999998,8.503640625,-1.0054980468749999
1680222961866055011,0.05,0.01,-0.0,1.4172734374999998,7.234989375,1.6808096875
1680222961905200004,-0.01,0.01,-0.01,0.7806495312499999,11.85530078125,2.55185828125
1680222961946286916,0.03,0.01,-0.01,0.48838476562499994,10.46177625,-4.979609375
1680222961967277050,0.04,-0.02,0.0,1.8340284375,9.561999140625,-0.253960078125
1680222962011581897,-0.04,0.02,0.0,0.545841796875,9.624052734374999,-7.115095703124999
1680222962050040960,-0.03,0.02,0.0,1.235326171875,12.784189453124998,-1.9726914062499998
1680222962067600965,0.02,0.03,0.0,1.537167109375,6.37313390625,0.741961796875
1680222962107455968,0.01,0.02,0.0,0.27770898437499997,9.4995625,-5.2190136718749995
1680222962146815061,0.01,-0.02,0.01,-3.342083984375,9.892185546875,-0.311417109375
1680222962185528993,0.03,0.02,0.01,4.586986328125,10.466755859374999,0.1149140625
1680222962213505029,0.01,0.02,0.02,-1.0342265625,11.35733984375,0.32558984375
1680222962263664007,-0.04,0.02,-0.0,5.36265625,12.837049921874998,0.890583984375
1680222962285528898,0.09,0.02,0.03,-1.73826671875,10.021272343749999,0.9863457031249999
1680222962409064054,-0.05,-0.01,-0.04,-7.033889765624999,13.105182734375,2.058876953125
1680222962447659015,-0.03,0.07,-0.02,-0.311417109375,10.773193359374998,4.510376953124999
1680222962489413022,0.03,-0.06,-0.03,-0.9576171874999999,8.94414453125,-0.0720128125
1680222962529558897,-0.09,0.03,-0.02,1.1682929687499999,8.36497765625,-1.594624140625
1680222962548396110,-0.03,0.07,0.03,0.71323328125,12.707580078124998,-1.259458125
1680222962589334011,-0.01,-0.04,-0.03,3.7347070312499997,6.526352656249999,-1.766995234375
1680222962628202915,-0.07,-0.02,-0.01,0.9288886718749999,11.414796874999999,3.8354483593749995
1680222962646266937,-0.01,0.01,-0.0,-2.503977421875,10.064556640625,-5.30979578125
1680222962686587095,-0.01,-0.0,-0.01,0.6082784375,9.269734374999999,3.993263671875
1680222962727085113,0.05,-0.03,-0.01,1.9822675781249999,8.972873046875,5.156577031249999
1680222962746802091,-0.02,-0.03,-0.0,-2.9444813281249997,12.702983515624998,3.8113164062499996
1680222962785654067,-0.01,-0.01,0.0,2.437327265625,10.490504765625,-0.388026484375
1680222962824934959,-0.02,-0.05,-0.01,1.9822675781249999,10.533789062499999,1.062955078125
1680222962866131067,-0.01,0.0,0.01,-0.6320273437499999,12.669275390625,3.6102167968749996
1680222962886897087,0.11,-0.0,0.02,-2.8249707031249995,10.246503906249998,2.4898046875
1680222962927645921,-0.04,-0.05,-0.08,2.480228515625,11.1466640625,1.106239375
1680222962968288898,-0.02,0.0,-0.02,-0.8381065624999999,11.500982421875,2.0971816406249997
1680222962988297939,0.07,0.01,-0.03,3.112255859375,10.9214325,-5.510895390625
1680222963027796983,-0.01,0.01,-0.06,-2.169194453125,6.588406249999999,0.67033203125
1680222963067537069,-0.01,-0.02,0.01,-1.632928828125,12.971116328125,-2.173791015625
1680222963087455987,-0.03,-0.01,0.03,-2.85829578125,12.247923828125,1.2211534375
1680222963127558946,0.05,-0.02,0.04,3.021090703125,9.982967656249999,9.030330078124999
1680222963167632102,0.07,0.02,0.0,-2.9349051562499997,10.3468621875,-2.24082421875
1680222963189136981,-0.08,0.01,-0.04,2.12591015625,11.706678593749999,-5.166153203125
1680222963229312896,-0.02,-0.07,-0.04,-3.993263671875,9.9209140625,0.622451171875
1680222963262226104,0.0,-0.05,-0.03,1.766995234375,9.719814453124998,1.920213984375
1680222963318480014,-0.03,0.02,0.01,-3.3470635937499997,8.896263671875,4.4433437499999995
1680222963411011934,0.03,-0.01,-0.01,-1.93438671875,11.424373046874999,1.5800683593749998
1680222963430646896,-0.04,-0.0,-0.03,4.45789953125,11.443525390624998,-0.612875
1680222963468301057,0.02,0.01,-0.01,-1.5417636718749999,9.284290156249998,-4.352561640625
1680222963508938074,-0.05,-0.02,-0.02,3.4619776562499993,13.11935546875,-1.446001953125
1680222963546359062,-0.05,-0.02,-0.0,-1.9726914062499998,9.375072265624999,-5.587504765625
1680222963566812038,0.02,-0.0,0.01,4.295104609375,5.50131921875,1.2065976562499998
1680222963605000972,-0.05,0.01,0.01,-0.8810078124999999,13.172215937499999,-2.710056640625
1680222963645925045,-0.06,-0.02,-0.01,-1.5321874999999998,14.110680781249998,0.11031749999999999
1680222963667644023,0.04,-0.01,0.01,1.24490234375,10.064556640625,1.446001953125
1680222963708123922,-0.02,0.0,-0.01,0.35929796875,12.133009765625,-1.1012597656249998
1680222963747173070,0.02,-0.02,-0.02,0.4979609375,9.489986328125,2.0876054687499996
1680222963768770933,-0.04,-0.02,-0.0,-1.4797100781249999,10.246503906249998,3.9312100781249995
1680222963807780027,-0.03,-0.02,0.01,0.28268859375,9.619456171875,1.465154296875
1680222963847702980,-0.07,-0.02,-0.02,0.335166015625,10.279828984375,1.7907441406249998
1680222963888449907,-0.02,-0.01,-0.0,-0.06243664062499999,9.882609375,3.8017402343749995
1680222963907639980,0.02,0.02,-0.01,2.47065234375,8.1159971875,-4.4433437499999995
1680222963947247028,-0.08,0.01,-0.02,0.67492859375,11.500982421875,-0.579549921875
1680222963987338066,0.03,-0.01,0.01,1.9822675781249999,9.159799921874999,-0.36389453125
1680222964007343053,0.01,-0.02,0.02,0.368874140625,8.417455078125,-6.904419921874999
1680222964047138929,0.04,-0.0,0.03,1.4172734374999998,8.225931640625,2.1929433593749996
1680222964088416099,0.0,0.04,0.03,-2.638043828125,11.941486328124999,2.2982812499999996
1680222964108041048,-0.02,0.01,0.01,-0.8955635937499998,11.079630859375,-0.9097363281249999
1680222964148121118,0.0,-0.01,0.03,-2.867871953125,9.940066406249999,-0.722809453125
1680222964188026905,-0.02,-0.03,0.01,-2.288705078125,10.480928593749999,3.1651163281249994
1680222964231497049,-0.0,0.0,0.01,-1.1445440624999998,8.5756534375,-5.999280156249999
1680222964264669895,0.03,0.01,0.01,1.50843859375,9.475813593749999,-2.575990234375
1680222964324105024,0.02,0.02,0.01,5.367252812499999,8.32667296875,-4.9413046875
1680222964426934003,-0.02,-0.0,-0.01,0.033708125,9.45666125,4.2089190625
1680222964449028968,-0.0,0.0,0.04,-2.3174335937499997,11.309458984374999,5.92267078125
1680222964488733053,0.01,-0.02,0.01,2.80083875,11.558439453124999,7.3211749218749995
1680222964531691074,-0.0,-0.0,0.01,0.502940546875,10.988465703125,1.5417636718749999
1680222964569195032,0.03,-0.0,-0.01,0.31601367187499996,9.863457031249999,-1.3169151562499999
1680222964588800907,-0.04,0.01,-0.02,1.27861046875,7.771254999999999,-2.85829578125
1680222964625660896,-0.02,0.01,0.0,-0.067033203125,8.910819453124999,4.7114765625
1680222964653726100,-0.0,-0.0,-0.02,1.1491406249999998,9.863457031249999,-0.49336437499999997
1680222964688842058,0.04,-0.01,0.01,-2.020572265625,10.835246953124999,-1.518014765625
1680222964728475093,-0.02,0.01,-0.0,-1.565895625,10.51923328125,-2.81999109375
1680222964766839027,-0.01,-0.02,-0.02,-0.19650304687499998,9.442105468749999,0.9001601562499999
1680222964786245107,0.02,-0.01,-0.01,3.3279112499999997,8.776753046875,-0.12946984374999998
1680222964826612949,-0.03,0.01,-0.01,-0.30184093749999996,10.55294140625,1.3789687499999999
1680222964868211984,0.02,0.01,0.0,-0.8189542187499999,10.873551640625,1.9056582031249998
1680222964888961076,0.0,0.01,0.0,1.04878234375,8.771773437499998,-2.810414921875
1680222964927064895,-0.02,-0.01,0.0,-1.7428632812499998,7.689666015624999,-0.21067578124999997
1680222964966895103,-0.0,0.0,0.01,-0.5554179687499999,9.782251093749998,-7.120075312499999
1680222965009501934,-0.04,-0.01,0.01,1.106239375,12.0659765625,4.477051874999999
1680222965027792930,0.07,-0.02,-0.02,1.3215117187499998,12.23834765625,-5.506298828125
1680222965068327903,-0.02,-0.01,0.03,0.59372265625,8.719296015625,0.32099328125
1680222965109855890,0.03,-0.02,0.02,0.502940546875,9.5378671875,2.89200390625
1680222965128755092,0.01,-0.01,0.01,1.7332871093749997,8.436607421875,0.7998018749999999
1680222965168876886,-0.02,-0.02,-0.01,4.510376953124999,10.20819921875,1.613776484375
1680222965213763952,0.01,0.0,-0.02,-0.9434444531249999,10.409298828125,-5.9755312499999995
1680222965264117956,0.02,0.01,-0.01,0.2681328125,11.453101562499999,-3.0739511718749997
1680222965412508010,-0.0,-0.0,0.0,0.08618554687499999,10.361417968749999,-0.430927734375
1680222965447058916,-0.01,-0.0,-0.01,0.17696765625,9.9209140625,-0.28728515624999995
1680222965466344118,-0.02,-0.0,-0.01,0.1578153125,10.141166015624998,-0.464635859375
1680222965506794929,-0.0,-0.0,-0.0,0.253960078125,10.088305546874999,-0.12946984374999998
1680222965546189069,0.03,0.01,-0.0,0.10533789062499999,10.141166015624998,-0.641603515625
1680222965566342115,0.02,0.0,0.0,0.01915234375,10.0404246875,-0.44050390624999997
1680222965606203079,-0.01,-0.01,0.0,0.16739148437499998,10.217775390624999,-0.0383046875
1680222965646498918,0.0,0.0,0.0,0.047880859374999994,10.122013671875,0.009576171875
1680222965688704013,-0.01,0.0,-0.0,0.11989367187499998,10.20819921875,-0.009576171875
1680222965707439899,-0.01,-0.0,0.0,0.23480773437499997,10.088305546874999,0.139046015625
1680222965746809959,-0.0,-0.0,0.0,0.0383046875,10.083708984374999,-0.028728515625
1680222965787756919,-0.0,0.0,-0.0,0.14862218749999997,10.193643437499999,0.06243664062499999
1680222965807048082,0.0,-0.0,-0.0,0.19650304687499998,10.112437499999999,0.06243664062499999
1680222965847049951,0.0,-0.0,-0.0,0.14364257812499998,10.203219609375,0.08120593749999999
1680222965889635086,-0.0,-0.0,-0.0,0.0720128125,10.083708984374999,-0.009576171875
1680222965928348064,0.0,-0.0,0.0,0.124490234375,10.179470703124998,-0.1578153125
1680222965949078083,0.0,-0.0,-0.0,0.201099609375,10.035828124999998,-0.04290125
1680222965991797924,0.0,0.0,-0.0,0.139046015625,10.164914921874999,-0.17696765625
1680222966025969982,0.0,-0.0,-0.0,0.17237109374999998,10.059577031249999,-0.258556640625
1680222966045262098,0.0,-0.0,-0.0,0.1149140625,10.141166015624998,-0.004979609375
1680222966089409112,0.0,-0.0,-0.0,0.19152343749999998,10.112437499999999,-0.139046015625
1680222966126142024,-0.0,-0.0,-0.0,0.181947265625,10.164914921874999,-0.11989367187499998
1680222966148582935,0.0,0.0,-0.0,0.201099609375,10.13158984375,-0.090782109375
1680222966187181949,0.0,-0.0,-0.0,0.10074132812499999,10.17449109375,-0.08120593749999999
1680222966227603912,-0.0,-0.0,-0.0,0.17237109374999998,10.09788171875,-0.090782109375
1680222966261919021,0.0,-0.0,-0.0,0.19152343749999998,10.198623046875,0.04290125
1680222966286170959,-0.0,-0.0,-0.0,0.14862218749999997,10.164914921874999,-0.162794921875
1680222966428575992,-0.0,-0.0,-0.0,0.229828125,10.150742187499999,-0.023748906249999997
1680222966469049930,-0.0,-0.0,0.0,0.22523156249999998,10.083708984374999,-0.13406640625
1680222966488188028,-0.0,-0.0,0.0,0.21067578124999997,10.088305546874999,-0.05286046874999999
1680222966527740001,-0.0,-0.0,-0.0,0.19152343749999998,10.164914921874999,-0.08120593749999999
1680222966567646980,0.0,0.0,-0.0,0.11989367187499998,10.102861328125,-0.10074132812499999
1680222966607996940,-0.0,-0.0,-0.0,0.12946984374999998,10.141166015624998,-0.090782109375
1680222966626487016,-0.0,-0.0,-0.0,0.11989367187499998,10.069153203125,-0.05745703125
1680222966669647932,-0.0,-0.0,-0.0,0.139046015625,10.050000859374999,0.004979609375
1680222966709628105,0.0,-0.0,-0.0,0.19152343749999998,10.126610234374999,-0.023748906249999997
1680222966726090908,-0.0,-0.0,-0.0,0.14862218749999997,10.164914921874999,-0.009576171875
1680222966767184019,-0.0,-0.0,0.0,0.19152343749999998,10.13618640625,-0.05286046874999999
1680222966809010982,0.0,-0.0,0.0,0.14862218749999997,10.13158984375,-0.13406640625
1680222966827225923,0.0,-0.0,-0.0,0.08120593749999999,10.13618640625,-0.18654382812499998
1680222966865814924,-0.0,-0.0,-0.0,0.21565539062499997,10.112437499999999,-0.11031749999999999
1680222966906959056,-0.0,-0.0,-0.0,0.19650304687499998,10.164914921874999,-0.1578153125
1680222966945158004,-0.0,-0.0,-0.0,0.181947265625,10.189046874999999,0.076609375
1680222966971770048,-0.0,-0.0,-0.0,0.19152343749999998,10.241524296875,-0.27311242187499996
1680222967012229919,0.0,0.0,-0.0,0.19152343749999998,10.064556640625,-0.23940429687499998
1680222967048973083,0.0,-0.0,-0.0,0.16739148437499998,10.184067265625,-0.0720128125
1680222967069613933,-0.0,-0.0,-0.0,0.139046015625,10.102861328125,-0.06243664062499999
1680222967106812000,0.0,0.0,-0.0,0.124490234375,10.0404246875,-0.16739148437499998
1680222967147752046,-0.01,-0.0,-0.0,-0.335166015625,10.442623906249999,0.06243664062499999
1680222967167624950,0.0,-0.0,0.01,0.11989367187499998,10.332689453124999,0.1578153125
1680222967210676908,-0.0,-0.0,0.0,0.17696765625,10.1170340625,-0.11031749999999999
1680222967264997959,0.0,-0.0,-0.0,0.19152343749999998,10.184067265625,0.033708125
1680222967285336971,0.0,0.0,-0.01,0.296861328125,10.05498046875,-0.047880859374999994
1680222967419013977,-0.0,-0.0,0.01,0.17237109374999998,10.074132812499998,-0.14364257812499998
1680222967450118064,0.0,0.0,-0.0,0.27770898437499997,10.227351562499999,-0.19650304687499998
1680222967490401983,-0.0,-0.0,-0.0,0.18654382812499998,10.011696171875,-0.05745703125
1680222967511573076,-0.0,-0.0,-0.0,0.10533789062499999,10.17449109375,-0.009576171875
1680222967549180984,0.0,0.0,0.0,0.19650304687499998,10.179470703124998,-0.014555781249999998
1680222967588259935,-0.01,-0.0,-0.0,0.23940429687499998,10.256080078124999,-0.201099609375
1680222967626481056,-0.0,-0.0,-0.01,0.17696765625,10.05498046875,0.023748906249999997
1680222967648848056,-0.0,-0.0,-0.01,0.1149140625,10.236927734375,-0.11989367187499998
1680222967687726974,0.0,-0.01,0.01,0.01915234375,10.1170340625,-0.124490234375
1680222967729228973,0.0,0.0,0.01,0.340145625,10.107457890625,0.033708125
1680222967748657941,0.0,0.0,0.0,0.3064375,10.112437499999999,-0.15321875
1680222967789855957,-0.0,-0.01,-0.01,0.10074132812499999,10.13618640625,-0.009576171875
1680222967829037904,0.0,0.01,-0.0,0.11989367187499998,10.217775390624999,-0.08618554687499999
1680222967849462985,0.0,0.01,0.0,0.24898046875,10.16989453125,-0.11989367187499998
1680222967887650966,-0.0,-0.01,0.01,0.11989367187499998,10.05498046875,-0.014555781249999998
1680222967928371906,0.0,0.01,-0.0,0.34474218749999996,10.078729375,0.067033203125
1680222967969036102,-0.0,-0.0,-0.01,0.1578153125,10.1170340625,-0.05286046874999999
1680222967990854978,-0.0,-0.0,-0.01,0.13406640625,10.198623046875,-0.04290125
1680222968028383970,0.0,0.0,-0.0,0.181947265625,10.150742187499999,-0.12946984374999998
1680222968069855928,0.0,0.01,-0.0,0.11031749999999999,10.25110046875,-0.258556640625
1680222968087105035,0.0,0.01,0.01,0.22025195312499998,10.074132812499998,-0.10074132812499999
1680222968127120018,-0.0,-0.0,0.02,0.38304687499999995,10.0404246875,-0.19650304687499998
1680222968169650077,-0.01,-0.0,-0.0,0.18654382812499998,10.164914921874999,-0.0720128125
1680222968189543962,0.0,0.0,-0.01,0.2681328125,10.102861328125,-0.08618554687499999
1680222968225939035,0.0,-0.0,-0.0,0.09576171874999999,10.270252812499999,-0.05286046874999999
1680222968261689901,-0.01,-0.01,-0.0,0.047880859374999994,10.083708984374999,-0.11989367187499998
1680222968429430961,-0.0,0.01,-0.0,0.14364257812499998,10.1170340625,-0.335166015625
1680222968469110012,-0.0,-0.01,0.01,0.229828125,9.9638153125,-0.30184093749999996
1680222968511142015,-0.0,-0.0,-0.01,0.24438390624999998,10.164914921874999,-0.1149140625
1680222968528475046,-0.0,-0.0,-0.01,0.3064375,10.203219609375,0.04290125
1680222968568747043,-0.0,-0.01,-0.0,-0.090782109375,10.122013671875,-0.0720128125
1680222968611388921,0.0,0.01,0.01,0.392623046875,10.13158984375,-0.023748906249999997
1680222968646223068,-0.0,-0.02,-0.0,0.1149140625,10.236927734375,0.033708125
1680222968665565013,0.0,-0.01,-0.0,-0.0,10.184067265625,-0.047880859374999994
1680222968708724021,-0.0,0.02,0.0,0.30184093749999996,10.09328515625,-0.0720128125
1680222968747153997,-0.0,-0.01,-0.0,0.139046015625,10.193643437499999,-0.19650304687499998
1680222968767036914,0.0,-0.02,-0.0,-0.023748906249999997,10.107457890625,-0.047880859374999994
1680222968808973073,-0.0,0.01,-0.0,0.19650304687499998,9.973391484375,-0.10074132812499999
1680222968848126888,0.0,-0.0,-0.01,0.28728515624999995,10.026251953125,-0.22523156249999998
1680222968866632938,-0.0,-0.01,-0.01,0.22025195312499998,10.13158984375,0.0
1680222968908124923,-0.0,0.01,0.0,0.09576171874999999,10.270252812499999,-0.201099609375
1680222968946100950,0.0,-0.0,0.01,0.15321875,10.150742187499999,-0.14862218749999997
1680222968968527078,-0.0,-0.0,0.0,0.1578153125,10.059577031249999,-0.13406640625
1680222969004429101,-0.0,-0.0,-0.01,0.20607921875,10.05498046875,-0.090782109375
1680222969048001050,0.0,-0.0,-0.01,-0.004979609375,10.069153203125,-0.13406640625
1680222969088444948,0.0,0.01,0.0,0.19650304687499998,10.184067265625,0.009576171875
1680222969106842994,-0.01,-0.0,0.01,0.1149140625,10.155338749999999,-0.028728515625
1680222969149840116,0.0,-0.0,0.0,0.17237109374999998,10.01667578125,-0.19152343749999998
1680222969189133882,0.0,0.01,-0.01,0.330569453125,10.13618640625,-0.22523156249999998
1680222969204962968,-0.0,-0.0,-0.01,0.11031749999999999,10.203219609375,-0.181947265625
1680222969262135982,0.0,-0.0,-0.0,-0.08120593749999999,10.184067265625,-0.12946984374999998
1680222969366004943,-0.0,-0.0,0.0,0.17237109374999998,10.09788171875,0.067033203125
1680222969450470924,0.0,-0.0,0.0,0.10074132812499999,10.102861328125,-0.17696765625
1680222969490264892,0.0,0.0,0.01,0.21067578124999997,10.074132812499998,0.0383046875
1680222969530108928,0.0,-0.0,-0.0,0.19152343749999998,10.13158984375,0.05745703125
1680222969551410913,-0.0,-0.01,-0.01,0.09576171874999999,10.217775390624999,-0.16739148437499998
1680222969589526891,0.0,-0.0,-0.0,0.11031749999999999,10.102861328125,-0.17696765625
1680222969630532979,0.0,-0.0,0.0,0.24438390624999998,10.1170340625,-0.09576171874999999
1680222969651633977,-0.0,-0.0,0.0,0.253960078125,10.145762578125,-0.08618554687499999
1680222969688128948,0.0,-0.0,-0.01,0.19650304687499998,10.088305546874999,0.014555781249999998
1680222969728466033,0.0,-0.01,-0.01,0.090782109375,9.968794921874998,-0.21565539062499997
1680222969769184112,0.0,0.0,-0.01,0.17237109374999998,10.045404296874999,-0.15321875
1680222969793270111,-0.0,0.0,0.0,0.22025195312499998,10.102861328125,-0.22523156249999998
1680222969832319974,-0.0,-0.0,0.0,0.076609375,10.09788171875,-0.124490234375
1680222969870460033,0.0,0.01,0.0,0.2681328125,10.102861328125,-0.06243664062499999
1680222969887975931,0.0,0.0,-0.0,0.416755,10.1170340625,-0.05286046874999999
1680222969930845975,-0.0,-0.0,0.0,0.42135156249999994,9.982967656249999,-0.08618554687499999
1680222969967256069,-0.01,0.0,-0.0,0.0720128125,10.189046874999999,0.0
1680222969987153053,0.01,0.0,0.0,0.28268859375,10.088305546874999,-0.181947265625
1680222970028718948,-0.0,-0.0,0.0,0.22523156249999998,10.102861328125,-0.028728515625
1680222970069242954,-0.0,-0.0,-0.0,0.14862218749999997,10.236927734375,-0.10074132812499999
1680222970109432935,0.0,0.01,0.0,0.27770898437499997,10.107457890625,-0.05286046874999999
1680222970127311944,-0.0,-0.0,0.0,0.19650304687499998,10.184067265625,-0.05286046874999999
1680222970167601108,0.0,0.0,0.0,0.0720128125,10.122013671875,-0.26353624999999997
1680222970210077047,-0.0,0.0,0.0,0.24898046875,10.184067265625,-0.124490234375
1680222970230365037,-0.0,-0.01,-0.0,0.311417109375,10.150742187499999,-0.047880859374999994
1680222970262548923,0.0,-0.01,-0.0,0.23480773437499997,10.107457890625,-0.27311242187499996
1680222970322882890,-0.0,-0.01,-0.0,0.1578153125,10.21279578125,-0.009576171875
1680222970412367105,0.0,-0.0,-0.01,0.340145625,10.007099609374999,-0.1578153125
1680222970451070070,-0.0,-0.0,-0.0,0.12946984374999998,10.217775390624999,-0.090782109375
1680222970469250917,-0.0,-0.0,0.0,0.11989367187499998,10.227351562499999,0.023748906249999997
1680222970509941101,0.0,-0.01,0.01,0.10533789062499999,10.030848515625,0.0
1680222970548511028,0.0,-0.0,0.0,0.201099609375,10.09788171875,-0.335166015625
1680222970568314075,0.0,-0.0,-0.0,0.18654382812499998,10.088305546874999,-0.14862218749999997
1680222970605741024,0.0,0.0,-0.0,0.17696765625,10.088305546874999,-0.24898046875
1680222970647085905,0.0,-0.0,-0.0,0.124490234375,10.074132812499998,-0.296861328125
1680222970667396068,0.0,-0.0,-0.0,0.139046015625,10.13158984375,-0.201099609375
1680222970704092025,0.0,0.0,-0.0,0.258556640625,10.083708984374999,-0.1578153125
1680222970746679067,0.0,-0.01,-0.01,0.11989367187499998,10.189046874999999,0.014555781249999998
1680222970787425994,0.0,0.0,-0.0,0.12946984374999998,10.05498046875,-0.19650304687499998
1680222970806010007,0.0,0.0,-0.0,0.09576171874999999,10.112437499999999,-0.19650304687499998
1680222970848790884,0.0,0.0,0.0,0.28728515624999995,10.184067265625,0.047880859374999994
1680222970888009071,0.0,-0.0,0.0,0.27311242187499996,10.107457890625,0.04290125
1680222970906387090,0.0,-0.0,0.0,0.23940429687499998,10.007099609374999,-0.04290125
1680222970948447942,0.0,-0.0,-0.01,0.14364257812499998,10.1170340625,-0.08120593749999999
1680222970990010976,0.0,-0.0,0.0,0.23940429687499998,9.930490234374998,-0.139046015625
1680222971011235952,-0.0,-0.01,-0.0,0.14862218749999997,10.126610234374999,-0.05745703125
1680222971048624992,0.0,0.0,0.01,0.09576171874999999,10.13618640625,-0.22025195312499998
1680222971090276002,0.0,-0.01,0.01,0.17696765625,10.164914921874999,-0.05745703125
1680222971128945112,-0.01,-0.0,0.01,-0.08120593749999999,10.179470703124998,-0.17696765625
1680222971151081085,-0.01,0.01,0.01,0.3064375,9.987947265625,-0.09576171874999999
1680222971190043926,-0.01,0.01,-0.01,0.392623046875,10.385166875,0.033708125
1680222971230355978,-0.0,-0.01,-0.01,0.009576171875,10.064556640625,0.11031749999999999
1680222971263000011,-0.02,-0.01,-0.01,-0.090782109375,10.294384765624999,0.05286046874999999
1680222971285641908,-0.01,-0.0,-0.0,0.033708125,10.466755859374999,-0.14862218749999997
1680222971427146911,-0.0,-0.01,-0.01,0.340145625,10.193643437499999,0.124490234375
1680222971466213941,0.0,-0.0,-0.01,-0.08618554687499999,10.13618640625,0.12946984374999998
1680222971487236976,0.01,0.02,-0.0,0.22523156249999998,9.930490234374998,0.18654382812499998
1680222971529311895,0.01,-0.01,0.01,0.258556640625,10.122013671875,0.033708125
1680222971568471908,0.01,-0.01,-0.0,0.2681328125,10.13618640625,-0.10533789062499999
1680222971590048074,0.01,-0.01,-0.0,0.229828125,10.074132812499998,-0.3064375
1680222971629765033,0.01,0.01,0.01,0.08618554687499999,10.088305546874999,-0.32099328125
1680222971657006025,0.01,0.01,0.01,0.21565539062499997,10.227351562499999,-0.48838476562499994
1680222971690834045,0.01,-0.01,-0.01,0.28268859375,10.112437499999999,-0.30184093749999996
1680222971730838060,0.01,-0.0,0.01,0.181947265625,10.279828984375,-0.05286046874999999
1680222971769364118,0.02,-0.02,0.0,0.124490234375,10.021272343749999,-0.090782109375
1680222971810329914,0.01,-0.01,0.02,0.22025195312499998,10.442623906249999,-0.296861328125
1680222971829696893,0.03,-0.01,-0.01,-2.714653203125,13.047725703124998,-0.7660937499999999
1680222971868318080,0.06,-0.01,-0.02,0.4979609375,9.968794921874998,0.067033203125
1680222971910062074,0.03,-0.02,-0.0,0.5841464843749999,10.447603515625,-0.445483515625
1680222971928047895,0.04,-0.04,-0.02,0.24898046875,10.533789062499999,-0.229828125
1680222971968900918,0.09,-0.05,0.05,0.536265625,10.442623906249999,-0.42633117187499997
1680222972007669925,0.09,-0.07,0.05,0.5841464843749999,10.796942265624999,-0.21067578124999997
1680222972030704975,0.16,-0.08,-0.01,0.13406640625,10.878531249999998,-0.033708125
1680222972069570064,0.25,-0.07,-0.01,0.21067578124999997,10.576690312499998,-0.6082784375
1680222972108280897,0.3,-0.06,0.01,0.31601367187499996,10.744464843749999,-0.4979609375
1680222972150172948,0.36,-0.09,0.01,0.12946984374999998,9.715217890624999,-0.775669921875
1680222972169475078,0.35,-0.09,0.01,-0.023748906249999997,9.571575312499998,-0.665352421875
1680222972207972049,0.25,-0.02,-0.0,0.17237109374999998,9.834728515624999,-0.7086367187499999
1680222972264281988,0.24,-0.01,-0.03,-0.522092890625,10.452200078125,-0.7277890625
1680222972285722970,0.23,-0.01,-0.07,0.08618554687499999,9.571575312499998,-0.560397578125
1680222972321964979,0.21,0.0,-0.08,0.08120593749999999,9.930490234374998,-0.8714316406249999
1680222972409404039,-0.14,-0.1,-0.12,0.20607921875,10.26565625,-0.5554179687499999
1680222972448839902,-0.1,-0.21,-0.12,0.58912609375,9.308039062499999,-0.7277890625
1680222972487703084,-0.17,-0.29,-0.16,0.14862218749999997,10.21279578125,-0.6894843749999999
1680222972507874965,-0.15,-0.29,-0.19,-0.23940429687499998,10.696583984375,-0.9147159374999999
1680222972549604892,-0.14,-0.25,-0.16,-0.162794921875,10.342265625,-1.22575
1680222972590784072,-0.17,-0.21,-0.06,-0.8043984375,9.935086796875,-1.3360675
1680222972610327959,-0.22,-0.17,-0.01,-0.8764112499999999,9.9975234375,-1.2065976562499998
1680222972651478052,-0.26,-0.06,0.14,0.19650304687499998,10.270252812499999,-0.9193125
1680222972691009998,-0.28,0.08,0.11,0.8859874218749999,9.743946406249998,-1.106239375
1680222972709912061,-0.27,0.12,0.09,0.01915234375,11.127511718749998,-0.7611141406249999
1680222972750047922,-0.14,0.21,0.07,-0.5266894531249999,10.9597371875,-0.19152343749999998
1680222972792054891,-0.01,0.2,0.23,0.32099328125,10.667855468749998,-0.38304687499999995
1680222972830476045,0.05,0.24,0.28,0.368874140625,10.318133671875,-0.1578153125
1680222972849484920,0.07,0.2,0.26,1.2161738281249999,10.696583984375,-0.21067578124999997
1680222972891525983,0.08,0.2,0.09,-0.23940429687499998,10.844823125,-0.124490234375
1680222972930740118,0.07,0.03,0.13,1.407697265625,9.662357421874999,-1.269034296875
1680222972950886011,0.01,-0.0,0.12,-0.416755,10.868955078125,-0.9242921093749998
1680222972992079973,-0.01,0.02,0.2,0.8427031249999999,11.074651249999999,-0.24898046875
1680222973031421899,-0.06,0.04,0.11,-1.39812109375,11.43854578125,-0.5412452343749999
1680222973051448106,-0.02,0.08,0.2,1.39812109375,10.964716796874999,-0.42135156249999994
1680222973088581085,0.01,0.02,0.25,1.7428632812499998,9.82974890625,-0.39760265625
1680222973129566907,0.01,0.04,0.08,1.292783203125,10.821074218749999,-0.340145625
1680222973169965028,0.02,0.05,-0.16,-0.56997375,10.47633203125,-0.483788203125
1680222973190536975,0.05,0.06,-0.28,1.4843066406249998,11.491406249999999,0.37347070312499997
1680222973232191085,0.02,0.0,-0.2,0.8810078124999999,9.90635828125,-0.17237109374999998
1680222973265767097,0.04,-0.05,-0.21,0.967193359375,8.972873046875,1.0392061718749999
1680222973289805889,0.02,-0.09,-0.26,-0.9338682812499999,11.108359375,0.2681328125
1680222973428519010,0.02,-0.06,-0.0,0.35431835937499995,10.356438359375,-0.32099328125
1680222973469969034,0.06,0.01,0.02,0.009576171875,9.427932734374998,-1.1012597656249998
1680222973513885974,0.24,0.28,0.16,0.296861328125,10.064556640625,-0.612875
1680222973529258966,0.3,0.34,0.2,-0.229828125,9.930490234374998,-0.5554179687499999
1680222973568411111,0.2,0.32,0.22,0.502940546875,10.471352421874998,-1.0679346875
1680222973610660076,0.12,0.19,0.21,1.0775108593749998,10.217775390624999,-1.1491406249999998
1680222973629578113,0.03,0.12,0.1,0.71323328125,9.561999140625,-1.288186640625
1680222973670003890,-0.16,0.05,-0.23,0.9817491406249998,9.662357421874999,-0.598702265625
1680222973709137916,-0.3,-0.01,-0.4,0.564994140625,9.839325078124999,-0.47421203125
1680222973731492996,-0.36,-0.07,-0.37,1.565895625,10.284808593749998,-0.35929796875
1680222973770349979,-0.37,-0.14,-0.3,-0.7611141406249999,10.754041015624999,-0.579549921875
1680222973809567928,-0.34,-0.16,-0.12,-0.10074132812499999,11.13210828125,-0.55082140625
1680222973851174116,-0.32,-0.07,0.04,0.46923242187499997,9.696065546875,-0.775669921875
1680222973870122909,-0.3,-0.04,0.14,0.06243664062499999,10.323113281249999,-0.445483515625
1680222973910005092,-0.2,0.08,0.19,0.39760265625,9.8014034375,-0.7902257031249998
1680222973949057102,-0.2,0.16,0.23,-0.21565539062499997,10.337286015624999,-0.0720128125
1680222973969753026,-0.15,0.21,0.16,0.258556640625,10.931008671874999,-0.08120593749999999
1680222974015388011,-0.13,0.24,0.13,0.22025195312499998,10.418875,-0.34474218749999996
1680222974050875902,-0.06,0.17,0.18,-0.17237109374999998,10.189046874999999,-0.13406640625
1680222974070914030,-0.05,0.17,0.18,0.5125167187499999,9.66733703125,-0.14364257812499998
1680222974112490892,-0.05,0.08,0.05,0.7611141406249999,9.782251093749998,-0.047880859374999994
1680222974150574922,-0.04,0.05,-0.04,0.9147159374999999,9.241005859374999,0.09576171874999999
1680222974170989036,-0.04,0.0,-0.09,0.7323856249999999,9.3846484375,0.17237109374999998
1680222974210226058,-0.02,-0.04,-0.11,0.40219921875,9.1548203125,0.507537109375
1680222974260601043,-0.02,-0.07,-0.06,0.35929796875,8.862938593749998,0.6799082031249999
1680222974282358884,-0.01,-0.08,-0.04,0.28728515624999995,9.0016015625,0.6940809375
1680222974318268060,0.01,-0.08,-0.01,0.42633117187499997,8.834210078124999,0.6607558593749999
1680222974365982055,0.01,-0.08,0.01,0.5745703124999999,8.451163203124999,0.5125167187499999
1680222974449655055,-0.0,-0.05,0.02,0.19650304687499998,8.283388671874999,0.368874140625
1680222974490957975,-0.04,-0.01,0.01,0.32558984375,8.589826171875,0.45008007812499995
1680222974514633893,-0.04,-0.01,0.02,0.416755,8.6185546875,0.28728515624999995
1680222974552743911,-0.06,0.01,0.02,0.407178828125,8.6951640625,0.37347070312499997
1680222974592449903,-0.06,-0.01,0.05,0.5316690625,8.843786249999999,0.253960078125
1680222974631712913,-0.07,-0.03,0.06,0.3784503125,9.332171015624999,0.598702265625
1680222974648689985,-0.04,-0.03,0.05,0.45008007812499995,9.427932734374998,0.17696765625
1680222974689382076,-0.02,-0.03,0.01,0.43590734375,9.863457031249999,0.349721796875
1680222974728775978,0.05,0.02,-0.0,0.18654382812499998,10.17449109375,0.13406640625
1680222974750133037,0.07,0.03,0.04,0.59372265625,10.074132812499998,0.15321875
1680222974790349960,0.08,0.02,0.08,0.21067578124999997,10.16989453125,0.22025195312499998
1680222974830073118,0.07,0.01,0.12,0.7373652343749999,9.8443046875,0.181947265625
1680222974870599031,0.0,-0.02,0.15,0.253960078125,9.284290156249998,0.12946984374999998
1680222974894114017,-0.04,-0.0,0.13,0.39760265625,9.59532421875,0.28728515624999995
1680222974930495977,-0.07,0.01,0.09,0.58912609375,9.758119140624999,0.258556640625
1680222974971079111,-0.09,0.02,0.02,0.598702265625,10.00212,0.31601367187499996
1680222974991190910,-0.07,0.04,-0.04,0.6174715625,10.107457890625,0.296861328125
1680222975030625104,-0.0,0.04,-0.06,0.6799082031249999,9.915934453124999,0.1149140625
1680222975073909044,0.09,0.03,-0.04,0.445483515625,10.59584265625,0.388026484375
1680222975091538906,0.13,0.03,-0.04,0.502940546875,10.088305546874999,0.201099609375
1680222975129996061,0.15,0.01,0.01,0.4979609375,10.51463671875,0.65577625
1680222975170337915,0.2,0.05,0.03,0.41177539062499996,10.20819921875,0.23480773437499997
1680222975190702915,0.17,0.06,0.03,0.8714316406249999,10.294384765624999,0.229828125
1680222975231591939,0.16,0.09,0.02,0.445483515625,10.275232421875,0.23940429687499998
1680222975264544010,0.12,0.09,0.01,0.46923242187499997,9.892185546875,-0.028728515625
1680222975323367118,0.0,0.08,-0.03,0.8810078124999999,10.28940515625,-0.004979609375
1680222975367110013,-0.04,0.05,-0.06,0.9863457031249999,10.184067265625,0.090782109375
1680222975469975948,-0.03,-0.02,-0.01,0.181947265625,10.677431640624999,0.162794921875
1680222975514950990,0.03,-0.01,0.01,0.7660937499999999,10.141166015624998,-0.10533789062499999
1680222975550096988,0.09,0.04,-0.05,0.124490234375,10.983869140624998,0.34474218749999996
1680222975571748971,0.12,0.06,-0.08,0.67492859375,10.71075671875,0.23480773437499997
1680222975612718105,0.1,0.04,-0.11,0.23940429687499998,10.55294140625,-0.12946984374999998
1680222975652966976,0.11,0.04,-0.08,0.8427031249999999,10.46177625,-0.14364257812499998
1680222975670068979,0.08,0.01,-0.07,0.722809453125,9.949642578125,-0.464635859375
1680222975707917928,0.01,-0.03,-0.02,0.407178828125,10.59584265625,-0.10533789062499999
1680222975750294923,-0.03,-0.03,-0.07,0.49336437499999997,9.892185546875,-0.10074132812499999
1680222975767333984,-0.08,-0.04,-0.05,0.407178828125,9.930490234374998,0.13406640625
1680222975806910037,-0.16,-0.04,-0.06,0.22523156249999998,10.413895390625,0.28268859375
1680222975848584890,-0.17,-0.04,-0.07,0.40219921875,10.20819921875,-0.009576171875
1680222975889045000,-0.14,-0.04,-0.02,0.1149140625,11.01259765625,0.45965625
1680222975908761024,-0.08,-0.02,0.0,0.296861328125,10.888107421874999,0.536265625
1680222975949604034,-0.01,0.01,-0.01,0.17696765625,10.366014531249998,0.340145625
1680222975990336894,0.05,0.05,0.03,0.35929796875,10.902280156249999,0.258556640625
1680222976010380983,0.08,0.06,-0.02,0.27311242187499996,10.5000809375,0.201099609375
1680222976051250934,0.08,0.07,-0.04,0.5412452343749999,10.370994140625,0.047880859374999994
1680222976088352918,0.07,0.06,-0.05,0.22025195312499998,10.3039609375,0.10074132812499999
1680222976109210968,0.06,0.06,-0.02,0.5841464843749999,10.13618640625,-0.181947265625
1680222976152390003,0.02,0.04,-0.0,0.090782109375,10.09328515625,0.023748906249999997
1680222976190772056,-0.04,0.06,-0.01,0.296861328125,10.3085575,0.10533789062499999
1680222976234730958,-0.04,0.05,-0.01,0.3784503125,9.873033203124999,0.009576171875
1680222976260921955,-0.08,0.03,-0.02,0.7998018749999999,10.543365234374999,0.139046015625
1680222976323223114,0.47,-0.04,-0.14,1.3693925781249998,8.4224346875,-0.162794921875
1680222976367258071,0.34,-0.08,-0.04,-1.0392061718749999,10.1170340625,-0.296861328125
1680222976395246028,0.17,-0.04,-0.05,0.20607921875,10.246503906249998,0.502940546875
1680222976452614068,0.06,-0.0,0.02,-0.296861328125,10.164914921874999,-0.20607921875
1680222976490783929,0.18,0.01,0.03,-0.18654382812499998,10.1170340625,-0.35929796875
1680222976529875993,-0.06,0.02,-0.03,-0.407178828125,10.164914921874999,0.35929796875
1680222976550961971,-0.07,0.04,-0.06,1.3215117187499998,10.279828984375,0.5841464843749999
1680222976594141960,0.02,0.03,-0.03,1.7620156249999999,10.26565625,-0.665352421875
1680222976632410049,0.07,-0.0,-0.12,0.9147159374999999,11.247022343749999,0.49336437499999997
1680222976670892953,0.1,0.02,-0.08,-0.45965625,10.907259765625,-0.6320273437499999
1680222976691468000,0.07,0.02,-0.02,-0.18654382812499998,11.654201171874998,-0.20607921875
1680222976730513095,0.14,0.02,0.02,0.522092890625,11.414796874999999,-0.388026484375
1680222976770044088,0.1,0.0,0.08,0.08618554687499999,11.060478515624999,-0.564994140625
1680222976788973093,0.09,-0.01,0.08,-0.08120593749999999,11.117935546875,-0.45008007812499995
1680222976829020023,0.06,-0.04,0.08,0.201099609375,11.352360234374999,-0.330569453125
1680222976871489048,0.06,-0.07,-0.02,0.023748906249999997,11.137087890624999,-0.21565539062499997
1680222976892848968,0.05,-0.07,-0.05,0.1149140625,10.902280156249999,-0.27311242187499996
1680222976934324979,0.01,-0.05,-0.1,-0.0,11.165816406249998,-0.139046015625
1680222976969407081,0.0,-0.04,-0.09,-0.090782109375,10.816094609375,-0.1578153125
1680222977009720087,-0.03,-0.04,-0.03,0.11989367187499998,11.070054687499999,0.04290125
1680222977030776977,-0.03,-0.04,-0.01,0.139046015625,10.821074218749999,-0.047880859374999994
1680222977070441961,-0.08,-0.04,0.02,-0.05286046874999999,10.59584265625,-0.11031749999999999
1680222977112792015,-0.11,-0.01,-0.01,-0.076609375,10.825670781249999,0.06243664062499999
1680222977131386041,-0.12,0.0,-0.0,-0.01915234375,11.103379765624998,0.229828125
1680222977170382976,-0.15,0.01,0.07,0.090782109375,11.386068359374999,0.0720128125
1680222977212201118,-0.18,-0.02,0.1,0.368874140625,10.76821375,-0.12946984374999998
1680222977233488082,-0.21,-0.03,0.1,0.42633117187499997,10.375590703124999,-0.368874140625
1680222977286338090,-0.25,-0.05,0.02,0.30184093749999996,9.892185546875,-0.37347070312499997
1680222977317378997,-0.28,-0.06,0.05,0.27311242187499996,9.796423828124999,-0.36389453125
1680222977450680017,-0.03,0.07,0.03,0.21067578124999997,8.901243281249998,0.033708125
1680222977471221923,0.02,0.07,0.05,0.04290125,8.762197265625,0.10533789062499999
1680222977516663074,0.11,0.06,0.07,0.11031749999999999,8.068116328124999,0.11989367187499998
1680222977550474882,0.14,0.01,0.08,0.35929796875,7.378631953124999,0.4550596875
1680222977572410106,0.14,-0.02,0.09,0.349721796875,7.33534765625,0.56997375
1680222977610654115,0.15,-0.08,-0.01,0.330569453125,7.019333984375,0.296861328125
1680222977652631044,0.09,-0.11,-0.04,0.10074132812499999,6.8373867187499995,0.19152343749999998
1680222977688518047,0.05,-0.09,-0.06,-0.18654382812499998,7.100922968749999,0.20607921875
1680222977706366062,0.03,-0.07,-0.04,0.028728515625,6.957280390624999,0.229828125
1680222977749813079,-0.01,-0.04,0.03,-0.14364257812499998,7.249162109374999,0.201099609375
1680222977795639991,-0.01,-0.0,0.02,-0.21565539062499997,7.752102656249999,0.16739148437499998
1680222977813261032,-0.02,0.03,-0.0,-0.17696765625,7.862037109375,0.229828125
1680222977848689079,-0.02,0.07,-0.04,-0.06243664062499999,8.728872187499999,0.1149140625
1680222977889332056,0.01,0.1,-0.07,-0.05745703125,9.3417471875,0.090782109375
1680222977912127971,0.01,0.11,-0.05,0.21067578124999997,9.427932734374998,-0.14862218749999997
1680222977952518939,0.02,0.06,0.08,0.330569453125,10.179470703124998,-0.51711328125
1680222977993135929,0.04,0.02,0.1,0.42135156249999994,9.729390624999999,-0.5125167187499999
1680222978030541896,0.07,-0.01,0.09,0.27311242187499996,10.390146484374998,-0.17696765625
1680222978050223112,0.1,-0.02,0.08,0.08618554687499999,9.968794921874998,-0.22523156249999998
1680222978092643976,0.09,0.03,-0.07,0.17696765625,10.122013671875,-0.067033203125
1680222978130712032,0.08,0.02,-0.04,0.14364257812499998,10.203219609375,0.1149140625
1680222978153203010,0.1,0.02,0.05,0.11031749999999999,10.20819921875,0.139046015625
1680222978193698883,0.08,0.04,-0.01,-0.24438390624999998,10.619974609375,0.17696765625
1680222978231759071,0.1,0.05,0.03,0.292264765625,10.97429296875,0.2681328125
1680222978262835979,0.11,0.06,0.05,0.16739148437499998,10.950161015625,0.31601367187499996
1680222978287039995,0.11,0.08,-0.01,0.047880859374999994,10.576690312499998,0.17696765625
1680222978318456888,0.09,0.09,-0.04,0.24898046875,10.567114140625,0.162794921875
1680222978430566072,-0.02,-0.04,-0.05,0.59372265625,10.480928593749999,0.08618554687499999
1680222978471185922,-0.07,-0.06,-0.08,0.502940546875,11.05549890625,0.32558984375
1680222978490643978,-0.07,-0.06,-0.14,0.13406640625,11.285327031249999,0.42135156249999994
1680222978530334949,-0.07,-0.0,-0.14,0.009576171875,10.816094609375,0.36389453125
1680222978569778919,-0.08,0.03,-0.11,-0.090782109375,11.084227421875,0.19650304687499998
1680222978590565919,-0.06,0.03,-0.07,-0.14364257812499998,10.428451171874999,-0.1578153125
1680222978638895034,-0.11,0.02,0.03,0.10533789062499999,9.9975234375,-0.076609375
1680222978670661926,-0.09,0.01,0.02,0.19650304687499998,11.165816406249998,0.076609375
1680222978710895061,0.42,0.01,0.06,-10.150742187499999,19.372595703124997,1.2977628125
1680222978731564044,-0.36,-0.03,0.12,0.483788203125,12.0659765625,-15.5133984375
1680222978772608995,-0.29,-0.01,0.09,5.3243515624999995,11.730810546874999,4.366734375
1680222978811785936,0.28,-0.05,-0.01,0.8093780468749999,8.6185546875,2.226651484375
1680222978831753015,0.15,0.0,-0.01,-0.229828125,10.639126953124999,2.39404296875
1680222978872193098,-0.12,0.02,-0.04,-0.1578153125,9.25058203125,-0.598702265625
1680222978910839080,0.01,-0.04,-0.03,-0.34474218749999996,10.940584843749999,0.08120593749999999
1680222978930150985,0.09,-0.02,-0.01,-0.49336437499999997,9.638608515624998,0.06243664062499999
1680222978970289945,-0.04,0.0,0.04,0.08120593749999999,10.25110046875,-0.01915234375
1680222979010293006,0.01,-0.01,0.03,0.1578153125,10.231948124999999,0.21067578124999997
1680222979050987005,-0.0,0.0,0.01,0.368874140625,10.222371953125,0.033708125
1680222979072345018,-0.02,0.0,-0.0,0.407178828125,10.035828124999998,-0.009576171875
1680222979109592914,0.01,-0.01,-0.01,-0.0,10.3085575,-0.258556640625
1680222979152899980,-0.01,0.01,-0.01,1.1682929687499999,9.470833984375,-0.5841464843749999
1680222979172713041,0.0,-0.01,-0.01,-0.124490234375,10.203219609375,0.0
1680222979214364051,0.0,0.01,0.0,0.464635859375,10.217775390624999,-0.08618554687499999
1680222979265412092,0.0,0.01,0.01,0.19152343749999998,9.973391484375,0.004979609375
1680222979285969018,0.0,0.01,-0.0,0.076609375,9.901761718749999,-0.48838476562499994
1680222979321795940,0.01,0.01,-0.0,-1.292783203125,6.641266718749999,0.3784503125
1680222979386418104,0.0,-0.02,0.01,-0.28728515624999995,9.877629765624999,-0.579549921875
1680222979413181066,0.01,0.01,0.0,-0.14364257812499998,10.021272343749999,-0.253960078125
1680222979452156066,-0.0,0.0,-0.01,0.16739148437499998,10.17449109375,-0.08120593749999999
1680222979492974042,0.0,-0.0,-0.01,0.22025195312499998,10.112437499999999,-0.08618554687499999
1680222979509829044,-0.0,-0.0,-0.01,-0.0,10.09788171875,0.028728515625
1680222979550987958,0.0,0.0,-0.0,0.16739148437499998,10.045404296874999,0.10074132812499999
1680222979591238021,-0.0,-0.0,0.0,0.14364257812499998,10.112437499999999,-0.033708125
1680222979612271070,0.0,-0.0,0.0,0.15321875,10.193643437499999,-0.076609375
1680222979651794910,0.0,0.0,-0.0,0.17237109374999998,10.069153203125,-0.05286046874999999
1680222979692697048,-0.0,-0.0,-0.0,0.18654382812499998,10.184067265625,-0.076609375
1680222979731296062,0.0,-0.0,-0.0,0.1149140625,10.102861328125,-0.201099609375
1680222979752841949,0.0,0.0,0.0,0.16739148437499998,10.145762578125,-0.10074132812499999
1680222979794260978,-0.0,-0.0,0.0,0.139046015625,10.064556640625,-0.014555781249999998
1680222979832204103,0.0,-0.0,-0.0,0.21565539062499997,10.16989453125,-0.20607921875
1680222979852351903,-0.01,-0.0,-0.0,0.46923242187499997,9.901761718749999,0.13406640625
1680222979895325899,0.02,-0.0,0.0,0.292264765625,9.360899531249999,-0.58912609375
1680222979935022115,-0.01,0.03,0.0,-0.4979609375,10.509657109374999,-0.7323856249999999
1680222979952718019,-0.01,0.03,-0.0,0.51711328125,10.141166015624998,-0.11989367187499998
1680222979989928960,-0.01,-0.03,-0.03,-0.09576171874999999,10.25110046875,0.023748906249999997
1680222980031397104,-0.0,0.01,0.0,-0.19152343749999998,10.332689453124999,0.124490234375
1680222980070719003,0.01,0.03,0.02,0.5412452343749999,9.987947265625,0.42135156249999994
1680222980090652942,0.0,0.0,-0.0,0.6270477343749999,10.337286015624999,0.38304687499999995
1680222980130424976,0.04,-0.02,-0.02,0.009576171875,10.164914921874999,-0.10533789062499999
1680222980172111034,-0.02,0.01,-0.02,0.23940429687499998,10.969313359374999,0.47880859374999996
1680222980193077087,-0.0,-0.01,-0.01,0.56997375,10.390146484374998,-0.047880859374999994
1680222980231441020,0.02,0.01,0.02,-0.01915234375,10.069153203125,-0.13406640625
1680222980263097047,0.0,0.03,0.01,0.19152343749999998,10.05498046875,-0.42633117187499997
1680222980365165948,-0.01,-0.05,-0.01,0.27770898437499997,9.9638153125,-0.71323328125
1680222980471488952,0.03,-0.01,0.01,-0.30184093749999996,10.844823125,0.0
1680222980513598918,-0.05,0.03,-0.05,0.59372265625,9.791827265624999,1.259458125
1680222980531539916,-0.0,0.02,-0.04,0.9625967968749999,10.509657109374999,0.8764112499999999
1680222980571290969,-0.02,-0.02,0.0,0.229828125,10.045404296874999,0.31601367187499996
1680222980613933086,0.01,0.01,0.01,0.023748906249999997,10.150742187499999,-0.0720128125
1680222980631437063,0.02,0.01,0.01,0.28268859375,10.141166015624998,-0.7902257031249998
1680222980673638105,-0.02,-0.01,-0.01,0.3064375,10.25110046875,-0.6320273437499999
1680222980711730957,-0.02,0.02,-0.02,0.20607921875,10.356438359375,-0.27770898437499997
1680222980750066995,-0.01,-0.01,-0.01,-0.16739148437499998,10.51923328125,-0.08618554687499999
1680222980770970106,-0.0,-0.0,-0.0,0.047880859374999994,10.126610234374999,-0.124490234375
1680222980813448905,-0.01,-0.0,0.0,0.22523156249999998,9.67193359375,0.6607558593749999
1680222980852543115,-0.0,-0.0,-0.0,0.20607921875,10.13618640625,0.44050390624999997
1680222980871504068,0.01,-0.0,-0.0,0.23480773437499997,10.294384765624999,-0.296861328125
1680222980915260076,-0.0,-0.01,-0.0,-0.124490234375,10.05498046875,-1.6375253906249998
1680222980950845956,-0.0,0.0,-0.0,0.507537109375,10.260676640624999,-0.19650304687499998
1680222980970036983,0.0,-0.0,-0.0,-0.27770898437499997,10.624571171874999,0.26353624999999997
1680222981010463953,-0.0,-0.0,0.01,0.388026484375,10.064556640625,0.32558984375
1680222981050672054,-0.0,-0.0,0.0,0.24438390624999998,11.026770390625,-0.033708125
1680222981071033954,-0.0,-0.0,0.0,0.047880859374999994,9.978371093749999,-0.890583984375
1680222981109400987,0.01,-0.0,-0.0,0.01915234375,10.59124609375,-0.181947265625
1680222981150055885,-0.0,-0.0,-0.0,0.22025195312499998,10.5000809375,0.21565539062499997
1680222981190440893,0.01,-0.0,0.0,0.17696765625,10.050000859374999,0.124490234375
1680222981210216999,-0.0,-0.01,0.0,0.28268859375,10.270252812499999,0.17696765625
1680222981261390924,0.02,-0.0,-0.0,0.10533789062499999,9.935086796875,0.43590734375
1680222981284755945,0.01,0.0,0.0,0.14364257812499998,10.035828124999998,0.39760265625
1680222981325017929,0.0,0.01,-0.01,0.076609375,10.122013671875,0.27311242187499996
1680222981368118047,0.01,0.01,-0.0,0.028728515625,10.0404246875,0.090782109375
1680222981434505939,0.0,0.04,-0.0,1.1445440624999998,9.935086796875,-0.311417109375
1680222981452891111,-0.01,0.04,0.01,0.368874140625,10.323113281249999,0.028728515625
1680222981493665933,-0.02,-0.03,0.01,0.30184093749999996,9.82974890625,-0.22523156249999998
1680222981531188964,0.0,-0.01,0.0,-0.004979609375,10.198623046875,-0.1149140625
1680222981551759004,0.01,0.03,-0.01,0.023748906249999997,10.13618640625,-0.296861328125
1680222981594191074,-0.0,0.0,-0.02,0.45008007812499995,10.145762578125,-0.258556640625
1680222981632838010,-0.0,-0.02,-0.01,-0.17696765625,10.150742187499999,-0.21565539062499997
1680222981650917053,0.0,0.0,0.01,-0.04290125,10.145762578125,-0.23480773437499997
1680222981695158004,0.0,0.01,0.01,0.368874140625,10.083708984374999,-0.14862218749999997
1680222981732347011,-0.0,-0.01,-0.0,0.139046015625,10.064556640625,-0.27770898437499997
1680222981772355079,0.0,0.01,-0.01,0.1149140625,10.145762578125,-0.17237109374999998
1680222981793473005,0.0,0.01,-0.0,0.15321875,10.088305546874999,-0.05745703125
1680222981835247039,-0.0,-0.01,-0.0,0.08120593749999999,10.17449109375,-0.201099609375
1680222981873187065,0.0,0.0,0.0,0.1149140625,10.122013671875,-0.17237109374999998
1680222981893198966,0.0,0.0,0.0,0.139046015625,10.184067265625,-0.0383046875
1680222981931278944,0.0,-0.0,-0.01,0.67033203125,10.1170340625,-0.32558984375
1680222981973068952,0.01,-0.02,-0.01,-0.24438390624999998,9.892185546875,-0.067033203125
1680222981995301008,0.01,0.01,0.01,-0.65577625,10.385166875,-0.7277890625
1680222982035711050,0.0,0.03,0.03,0.19650304687499998,9.753522578124999,-0.41177539062499996
1680222982073153018,-0.01,-0.03,0.0,0.483788203125,10.217775390624999,0.0383046875
1680222982111407041,-0.01,0.02,-0.01,0.14862218749999997,9.95921875,0.368874140625
1680222982131227970,-0.0,0.03,-0.01,0.09576171874999999,10.260676640624999,0.296861328125
1680222982171353101,0.0,-0.01,-0.02,0.22523156249999998,10.083708984374999,0.004979609375
1680222982211992979,0.0,-0.04,-0.02,-0.023748906249999997,10.155338749999999,0.27311242187499996
1680222982232799053,0.01,-0.01,-0.01,-0.124490234375,10.074132812499998,-0.536265625
1680222982261343955,0.0,0.01,-0.02,-0.01915234375,10.064556640625,-0.39760265625
1680222982319363117,-0.0,0.01,-0.01,0.22523156249999998,10.164914921874999,-0.1149140625
1680222982368885040,-0.0,-0.0,-0.0,0.23480773437499997,10.064556640625,-0.0720128125
1680222982414549112,0.0,0.01,0.01,0.407178828125,9.90635828125,-0.21067578124999997
1680222982451600074,-0.01,-0.01,-0.01,0.340145625,10.17449109375,0.2681328125
1680222982471076011,0.0,-0.02,-0.0,0.6270477343749999,10.198623046875,-0.23940429687499998
1680222982514290094,0.03,-0.03,-0.0,-0.32099328125,10.227351562499999,-0.3064375
1680222982551042079,0.01,0.0,0.01,-0.0720128125,9.949642578125,0.05286046874999999
1680222982570364952,0.01,0.01,0.03,-0.014555781249999998,9.896782109375,0.08618554687499999
1680222982613733053,-0.0,0.0,0.0,0.23480773437499997,10.51463671875,-0.162794921875
1680222982653453111,0.01,0.02,0.0,0.17237109374999998,9.380051875,-0.43590734375
1680222982672127008,-0.01,0.01,0.01,0.56997375,10.126610234374999,-0.23480773437499997
1680222982710679054,-0.04,0.0,0.01,0.181947265625,9.90635828125,-0.047880859374999994
1680222982752439975,-0.07,0.08,-0.01,1.771591796875,9.9638153125,-1.4222530468749999
1680222982792515993,-0.08,0.15,0.05,0.9721729687499999,10.16989453125,0.41177539062499996
1680222982813797950,-0.13,0.17,0.06,1.01047765625,10.193643437499999,-0.5266894531249999
1680222982852946043,-0.2,0.21,-0.04,0.340145625,10.294384765624999,0.06243664062499999
1680222982894217967,-0.15,0.09,-0.06,1.3406640625,10.275232421875,-0.014555781249999998
1680222982908931016,-0.11,-0.0,-0.11,1.594624140625,10.442623906249999,0.2681328125
1680222982952655076,0.03,-0.23,-0.1,1.6425049999999999,11.05090234375,0.622451171875
1680222982993804931,0.36,-0.33,0.02,0.8859874218749999,10.907259765625,0.20607921875
1680222983011444091,0.43,-0.37,0.08,0.9817491406249998,10.816094609375,-0.139046015625
1680222983053092002,0.53,-0.33,0.17,0.51711328125,10.835246953124999,0.09576171874999999
1680222983094819068,0.44,-0.2,0.25,0.65577625,9.4995625,-0.6511796875
1680222983113631010,0.33,-0.14,0.22,0.8859874218749999,9.489986328125,-0.622451171875
1680222983155019998,0.16,-0.04,0.14,1.062955078125,9.566595703125,-0.7036571093749999
1680222983192091941,-0.04,-0.04,0.1,1.1108359374999999,9.030330078124999,-0.622451171875
1680222983219578981,-0.09,-0.05,0.07,1.1491406249999998,9.0782109375,-0.699060546875
1680222983264799118,-0.26,-0.11,0.01,0.6082784375,8.94414453125,-0.3064375
1680222983288006067,-0.34,-0.13,-0.02,0.8381065624999999,9.13107140625,-0.296861328125
1680222983320192098,-0.39,-0.17,-0.05,0.9338682812499999,9.66733703125,-0.15321875
1680222983434129953,-0.1,-0.32,0.02,0.40219921875,10.078729375,0.009576171875
1680222983453155994,-0.06,-0.3,-0.02,0.12946984374999998,10.7253125,0.14364257812499998
1680222983491925954,0.07,-0.24,-0.03,0.27770898437499997,10.20819921875,0.124490234375
1680222983533648967,0.04,-0.16,0.02,0.0383046875,10.059577031249999,0.05745703125
1680222983571568965,0.02,-0.12,0.04,0.28268859375,10.313537109375,0.033708125
1680222983592124938,0.02,-0.09,0.07,0.09576171874999999,10.21279578125,0.0720128125
1680222983634881019,-0.02,-0.03,0.09,0.4979609375,9.681509765625,-0.32558984375
1680222983672039031,-0.02,-0.09,0.08,0.28268859375,10.55294140625,0.13406640625
1680222983692564964,-0.01,-0.09,0.12,0.04290125,10.050000859374999,0.09576171874999999
1680222983732697010,-0.08,-0.11,0.09,0.16739148437499998,10.035828124999998,0.076609375
1680222983773355960,-0.03,-0.14,0.05,0.17237109374999998,9.944662968749999,0.014555781249999998
1680222983794187068,-0.03,-0.15,0.04,0.08120593749999999,9.66733703125,0.10074132812499999
1680222983834116935,-0.05,-0.13,0.0,-0.12946984374999998,10.25110046875,0.26353624999999997
1680222983873596906,0.0,-0.14,-0.02,0.124490234375,10.050000859374999,0.201099609375
1680222983913891077,-0.04,-0.13,-0.04,-0.311417109375,10.021272343749999,0.1578153125
1680222983932050943,-0.04,-0.14,-0.02,-0.028728515625,10.088305546874999,0.05286046874999999
1680222983976023912,-0.04,-0.13,0.07,-0.63662390625,10.16989453125,0.10533789062499999
1680222984013540029,-0.06,-0.05,0.11,-0.392623046875,9.806,0.124490234375
1680222984034176111,-0.06,-0.04,0.14,-0.59372265625,9.834728515624999,0.22523156249999998
1680222984072604894,-0.05,-0.02,0.08,-0.5266894531249999,10.404319218749999,0.11989367187499998
1680222984114212989,-0.01,-0.05,0.02,-0.30184093749999996,10.1170340625,0.24898046875
1680222984134732007,-0.01,-0.08,0.02,-0.63662390625,10.337286015624999,0.19650304687499998
1680222984174860954,-0.0,-0.08,-0.04,-0.32099328125,10.480928593749999,0.2681328125
1680222984212618112,0.0,-0.07,0.0,-0.7323856249999999,9.8872059375,0.23480773437499997
1680222984264484882,-0.01,-0.06,-0.02,-0.3784503125,10.418875,-0.067033203125
1680222984286611080,0.01,-0.06,-0.02,-0.6607558593749999,10.438027343749999,0.090782109375
1680222984325242996,0.02,-0.03,-0.01,-0.741961796875,10.112437499999999,0.028728515625
1680222984367716073,0.0,-0.0,-0.02,-0.545841796875,10.16989453125,0.08120593749999999
1680222984451704025,0.07,0.2,0.02,-0.9338682812499999,10.370994140625,0.1578153125
1680222984470722913,0.06,0.21,0.01,-0.42135156249999994,10.3085575,-0.14862218749999997
1680222984510160923,0.05,0.25,0.03,-0.04290125,10.260676640624999,0.009576171875
1680222984550909042,0.01,0.24,0.02,0.17696765625,10.538385625,0.13406640625
1680222984592084884,0.02,0.24,-0.0,0.3064375,10.01667578125,0.201099609375
1680222984612082958,0.0,0.22,-0.01,0.5316690625,9.882609375,0.16739148437499998
1680222984652686119,-0.01,0.2,-0.02,0.047880859374999994,10.13158984375,0.05745703125
1680222984693356990,-0.03,0.21,-0.05,0.44050390624999997,9.86805359375,0.009576171875
1680222984712997913,-0.04,0.2,-0.09,0.34474218749999996,10.13618640625,-0.05286046874999999
1680222984754544973,0.01,0.19,-0.07,0.47421203125,10.09788171875,-0.05745703125
1680222984793457984,0.03,0.16,-0.13,0.17696765625,10.007099609374999,0.292264765625
1680222984813481092,0.04,0.16,-0.14,0.24898046875,10.505060546874999,0.464635859375
1680222984850833892,0.1,0.16,-0.08,0.139046015625,10.193643437499999,0.22523156249999998
1680222984892261981,0.14,0.2,-0.06,0.388026484375,9.9975234375,0.34474218749999996
1680222984932450056,0.13,0.23,-0.01,0.42633117187499997,10.069153203125,0.014555781249999998
1680222984954900026,0.14,0.22,-0.02,0.598702265625,10.184067265625,-0.19152343749999998
1680222984993128061,0.14,0.21,0.02,0.8189542187499999,9.681509765625,-0.24438390624999998
1680222985031687974,0.11,0.18,0.01,0.5266894531249999,10.332689453124999,0.028728515625
1680222985052934885,0.12,0.2,-0.01,0.42135156249999994,9.949642578125,0.067033203125
1680222985093571901,0.07,0.25,-0.02,0.7806495312499999,10.16989453125,-0.08618554687499999
1680222985133191108,0.06,0.32,-0.05,0.8043984375,10.351841796874998,-0.23480773437499997
1680222985152976989,0.06,0.32,-0.08,1.062955078125,10.150742187499999,-0.32099328125
1680222985195467948,0.02,0.26,-0.07,1.388544921875,9.954239140624999,-0.229828125
1680222985232023954,-0.0,0.21,-0.1,1.618373046875,10.074132812499998,-0.229828125
1680222985263036012,-0.01,0.17,-0.09,1.326491328125,10.102861328125,-0.181947265625
1680222985368725061,0.04,0.14,-0.11,1.115815546875,10.385166875,-0.004979609375
1680222985395620107,0.04,0.14,-0.09,1.455578125,9.9638153125,-0.335166015625
1680222985474689006,0.08,0.19,0.05,1.99184375,10.122013671875,-0.12946984374999998
1680222985495054960,0.09,0.19,0.0,2.23622765625,9.767695312499999,-0.47421203125
1680222985534128904,0.06,0.13,-0.06,2.1067578124999997,9.892185546875,-0.27770898437499997
1680222985573570966,-0.0,0.03,-0.03,1.9631152343749998,9.940066406249999,-0.258556640625
1680222985613038063,-0.04,-0.04,-0.02,1.81487609375,9.782251093749998,-0.36389453125
1680222985633304119,-0.06,-0.07,-0.03,1.8340284375,10.0404246875,-0.32558984375
1680222985672811985,-0.07,-0.11,0.02,1.556319453125,9.940066406249999,-0.19650304687499998
1680222985711633920,-0.08,-0.13,0.03,1.173272578125,10.241524296875,-0.14862218749999997
1680222985736464977,-0.07,-0.12,0.02,1.0342265625,10.433047734375,-0.014555781249999998
1680222985776681900,-0.02,-0.12,0.01,1.2020010937499999,10.09328515625,0.06243664062499999
1680222985813477993,0.02,-0.16,-0.0,0.9817491406249998,10.457179687499998,-0.047880859374999994
1680222985835032939,0.04,-0.17,0.02,0.646200078125,10.078729375,-0.0720128125
1680222985874272108,0.03,-0.19,0.08,0.7710733593749999,10.227351562499999,-0.0383046875
1680222985913371086,0.03,-0.21,0.15,0.407178828125,9.66733703125,-0.39760265625
1680222985956101894,-0.02,-0.23,0.16,0.46923242187499997,10.236927734375,-0.14862218749999997
1680222985975687026,-0.01,-0.24,0.16,0.368874140625,10.112437499999999,-0.14364257812499998
1680222986013453960,-0.05,-0.26,0.15,0.28728515624999995,10.179470703124998,-0.27770898437499997
1680222986054097890,-0.02,-0.26,0.05,0.16739148437499998,10.490504765625,-0.23480773437499997
1680222986072920083,-0.01,-0.27,0.05,0.047880859374999994,10.356438359375,-0.368874140625
1680222986112693071,0.01,-0.25,0.01,-0.162794921875,10.366014531249998,-0.36389453125
1680222986153832912,0.06,-0.21,-0.04,-0.37347070312499997,10.17449109375,-0.35431835937499995
1680222986171363115,0.07,-0.17,-0.03,-0.71323328125,9.954239140624999,-0.349721796875
1680222986210983991,0.08,-0.11,-0.08,-0.5554179687499999,10.078729375,-0.416755
1680222986259944915,0.09,-0.05,-0.02,-0.9288886718749999,9.858477421875,-0.564994140625
1680222986283250093,0.06,-0.02,-0.01,-0.63662390625,9.547443359374999,-0.8427031249999999
1680222986364370107,-0.02,0.05,-0.02,-0.34474218749999996,9.791827265624999,-0.564994140625
1680222986412679910,-0.1,-0.01,-0.03,-0.19650304687499998,9.782251093749998,-0.56997375
1680222986454256057,-0.11,-0.08,-0.06,-0.124490234375,9.9975234375,-0.5125167187499999
1680222986494394063,-0.05,-0.14,-0.15,-0.32099328125,10.107457890625,-0.311417109375
1680222986514556884,-0.01,-0.14,-0.21,-0.43590734375,10.189046874999999,-0.49336437499999997
1680222986551676034,0.08,-0.11,-0.25,-0.48838476562499994,10.51463671875,-0.34474218749999996
1680222986593872070,0.17,-0.05,-0.17,-0.6799082031249999,10.3039609375,-0.43590734375
1680222986633198022,0.19,0.07,-0.04,-0.7182128906249999,9.8872059375,-0.416755
1680222986651622056,0.14,0.14,0.09,-0.6511796875,10.9214325,-0.699060546875
1680222986693109035,-0.14,0.19,0.12,0.6799082031249999,9.892185546875,-0.9147159374999999
1680222986733459949,-0.27,0.16,0.09,1.5321874999999998,7.857440546874999,-0.38304687499999995
1680222986752774953,-0.28,0.12,0.03,0.8476827343749999,9.848901249999999,-0.253960078125
1680222986793061017,-0.29,0.1,-0.06,0.1578153125,9.686489374999999,-0.19152343749999998
1680222986834419965,-0.31,0.11,-0.06,2.08300890625,12.468175781249998,2.384466796875
1680222986853862047,-0.0,0.05,-0.05,4.950880859374999,9.09276671875,-3.4665742187499995
1680222986893332958,-0.0,-0.05,0.02,0.3064375,10.720332890624999,-1.1012597656249998
1680222986932512044,0.02,-0.05,-0.03,0.292264765625,9.518714843749999,-0.6082784375
1680222986975321054,-0.04,0.03,0.0,-0.05745703125,10.083708984374999,0.430927734375
1680222986992868900,-0.01,0.04,-0.01,0.37347070312499997,9.901761718749999,-0.11031749999999999
1680222987034532070,-0.02,-0.02,0.02,-0.12946984374999998,10.691604374999999,-0.090782109375
1680222987072805881,-0.0,0.01,0.02,0.21565539062499997,10.126610234374999,-0.0383046875
1680222987094438076,-0.0,0.03,0.0,0.23940429687499998,10.155338749999999,0.08618554687499999
1680222987132719993,-0.01,0.01,-0.03,0.349721796875,10.222371953125,0.033708125
1680222987173791885,-0.0,-0.0,-0.03,0.10074132812499999,10.122013671875,0.3064375
1680222987193941116,-0.0,-0.0,-0.03,-0.10533789062499999,10.217775390624999,-0.11031749999999999
1680222987234163999,0.06,-0.01,0.01,-0.0720128125,10.4234715625,0.63662390625
1680222987261049985,0.04,0.01,0.01,0.05745703125,9.806,0.004979609375
1680222987363595008,0.01,-0.02,0.01,0.04290125,10.236927734375,-0.047880859374999994
1680222987413744926,0.01,0.0,-0.01,0.8955635937499998,10.021272343749999,-0.009576171875
1680222987435503959,-0.01,-0.04,-0.03,0.05286046874999999,10.184067265625,-0.12946984374999998
1680222987471790075,0.01,0.0,-0.0,-0.201099609375,10.021272343749999,-0.124490234375
1680222987519346952,-0.01,0.01,0.01,0.507537109375,10.184067265625,-0.139046015625
1680222987533126115,-0.0,-0.01,0.01,0.34474218749999996,10.241524296875,-0.05745703125
1680222987573198080,-0.0,-0.01,0.0,0.1149140625,10.05498046875,-0.14862218749999997
1680222987615690946,0.0,0.01,-0.0,0.23480773437499997,10.069153203125,-0.10533789062499999
1680222987652748107,-0.0,-0.01,-0.01,0.06243664062499999,10.088305546874999,-0.1578153125
1680222987672756910,-0.0,-0.01,-0.0,0.1149140625,10.141166015624998,-0.06243664062499999
1680222987710520982,0.0,0.01,0.01,0.11031749999999999,10.035828124999998,-0.023748906249999997
1680222987751029968,-0.0,-0.01,-0.0,0.09576171874999999,10.13618640625,-0.1578153125
1680222987770948886,-0.0,-0.01,-0.0,0.033708125,10.112437499999999,-0.01915234375
1680222987815731048,0.0,0.0,-0.0,0.13406640625,10.164914921874999,-0.067033203125
1680222987853209972,-0.0,-0.0,-0.0,0.181947265625,10.1170340625,-0.076609375
1680222987872263908,-0.0,-0.0,0.0,0.09576171874999999,10.088305546874999,-0.17237109374999998
1680222987914341926,-0.0,0.0,0.0,0.14364257812499998,10.088305546874999,-0.10533789062499999
1680222987953727006,-0.0,-0.01,-0.0,0.14364257812499998,10.17449109375,-0.028728515625
1680222987994755029,-0.0,-0.0,-0.0,0.13406640625,10.150742187499999,-0.124490234375
1680222988013638973,-0.0,-0.0,-0.0,0.21067578124999997,10.155338749999999,-0.08120593749999999
1680222988055188894,0.0,-0.0,-0.0,0.009576171875,10.05498046875,-0.17696765625
1680222988092199087,0.05,-0.0,-0.0,0.296861328125,10.083708984374999,-0.6082784375
1680222988113512039,0.01,-0.01,0.0,0.37347070312499997,9.8872059375,-0.756517578125
1680222988153440952,-0.01,-0.0,0.0,0.047880859374999994,10.3039609375,0.24898046875
1680222988196218967,-0.0,0.01,0.0,0.22523156249999998,10.05498046875,0.340145625
1680222988214118957,0.0,-0.0,-0.0,0.1578153125,10.260676640624999,0.05286046874999999
1680222988265019893,0.01,-0.0,-0.0,0.05286046874999999,10.064556640625,-0.139046015625
1680222988285120010,0.01,-0.0,-0.0,0.17237109374999998,10.069153203125,-0.22025195312499998
1680222988321078062,-0.0,-0.0,0.0,0.12946984374999998,10.112437499999999,-0.181947265625
1680222988366218090,0.01,-0.0,0.0,0.20607921875,10.035828124999998,-0.41177539062499996
1680222988435280084,-0.0,0.01,-0.0,0.1149140625,10.155338749999999,-0.10533789062499999
1680222988456707954,-0.0,0.0,-0.01,0.17696765625,10.150742187499999,-0.01915234375
1680222988496088981,0.0,-0.0,-0.0,0.0383046875,10.122013671875,-0.181947265625
1680222988535744905,0.0,0.0,0.0,0.139046015625,10.184067265625,-0.18654382812499998
1680222988554565906,0.01,0.0,-0.0,0.24438390624999998,10.064556640625,-0.27311242187499996
1680222988593080043,-0.01,-0.01,-0.0,0.090782109375,10.28940515625,-0.076609375
1680222988636557102,0.01,0.01,-0.0,0.13406640625,10.026251953125,-0.15321875
1680222988674261093,-0.0,-0.01,-0.0,0.17237109374999998,10.332689453124999,-0.08618554687499999
1680222988693825960,0.01,-0.01,-0.0,0.0720128125,10.284808593749998,-0.067033203125
1680222988733941078,-0.01,0.0,0.0,0.1578153125,10.026251953125,-0.464635859375
1680222988771754980,-0.01,-0.0,-0.0,0.23480773437499997,9.949642578125,-0.090782109375
1680222988791201114,-0.01,-0.0,-0.0,0.19152343749999998,10.189046874999999,-0.0720128125
1680222988831152915,-0.0,-0.0,-0.0,-0.01915234375,10.074132812499998,0.09576171874999999
1680222988873598098,-0.0,0.01,-0.0,0.10074132812499999,10.217775390624999,0.004979609375
1680222988893233060,0.0,-0.0,0.0,0.27311242187499996,10.179470703124998,0.090782109375
1680222988934272050,0.0,-0.0,0.0,0.17237109374999998,10.122013671875,-0.08120593749999999
1680222988973908901,0.0,0.0,-0.0,0.20607921875,10.122013671875,-0.27770898437499997
1680222989016721010,-0.0,-0.0,-0.0,0.17696765625,10.13618640625,-0.20607921875
1680222989035325050,-0.0,-0.0,-0.0,0.09576171874999999,10.088305546874999,-0.08618554687499999
1680222989074384927,0.0,0.0,-0.0,0.08618554687499999,10.155338749999999,-0.28728515624999995
1680222989114717006,-0.0,-0.0,0.0,0.181947265625,10.189046874999999,-0.090782109375
1680222989135236024,0.0,-0.0,-0.0,0.21067578124999997,10.13158984375,-0.009576171875
1680222989174583911,-0.0,-0.0,-0.0,0.19152343749999998,10.16989453125,-0.14862218749999997
1680222989213965892,0.0,0.0,-0.0,0.20607921875,10.083708984374999,-0.181947265625
1680222989234656095,0.0,0.0,-0.0,0.06243664062499999,10.083708984374999,-0.06243664062499999
1680222989284662008,0.0,-0.0,-0.0,0.01915234375,10.164914921874999,-0.22025195312499998
1680222989317543029,0.0,-0.0,-0.0,0.14364257812499998,10.1170340625,-0.076609375
1680222989366877079,0.0,-0.0,-0.0,0.13406640625,10.17449109375,-0.05745703125
1680222989453325033,0.0,0.0,-0.0,0.09576171874999999,10.09328515625,-0.14862218749999997
1680222989474221944,0.0,-0.0,0.0,0.11031749999999999,10.145762578125,-0.047880859374999994
1680222989517357110,-0.0,-0.0,0.0,0.15321875,10.059577031249999,-0.14364257812499998
1680222989555618047,-0.01,0.01,-0.0,0.13406640625,10.126610234374999,-0.047880859374999994
1680222989576179027,0.0,0.01,-0.01,0.296861328125,10.13618640625,-0.253960078125
1680222989615683078,-0.01,-0.01,-0.01,0.229828125,10.16989453125,0.028728515625
1680222989655905961,-0.0,-0.0,0.01,0.1149140625,10.078729375,-0.139046015625
1680222989694993972,0.0,0.0,0.0,0.258556640625,10.222371953125,-0.09576171874999999
1680222989712558984,-0.0,-0.0,-0.0,0.124490234375,10.107457890625,-0.28728515624999995
1680222989759979009,-0.0,-0.0,-0.0,0.11989367187499998,10.145762578125,0.014555781249999998
1680222989792066097,0.0,0.0,-0.0,0.22025195312499998,10.069153203125,-0.10533789062499999
1680222989812326908,0.0,0.0,-0.0,0.047880859374999994,10.164914921874999,-0.06243664062499999
1680222989852117061,-0.0,-0.0,0.0,0.17696765625,10.256080078124999,-0.09576171874999999
1680222989893423080,0.0,-0.01,-0.0,0.09576171874999999,10.25110046875,-0.014555781249999998
1680222989911380052,-0.0,-0.01,-0.0,-0.0383046875,10.122013671875,-0.09576171874999999
1680222989953569889,0.0,0.0,0.0,0.09576171874999999,10.189046874999999,-0.258556640625
1680222989993587017,-0.0,-0.0,-0.0,0.15321875,10.150742187499999,-0.08120593749999999
1680222990035353899,-0.0,-0.0,-0.0,0.08618554687499999,10.074132812499998,0.014555781249999998
1680222990049478054,0.0,0.0,-0.0,0.18654382812499998,10.112437499999999,-0.076609375
1680222990095395088,-0.0,-0.0,-0.0,0.21067578124999997,10.164914921874999,-0.0720128125
1680222990133616924,0.0,-0.0,-0.0,0.14862218749999997,10.088305546874999,-0.076609375
1680222990154061079,0.0,-0.0,-0.0,0.12946984374999998,10.122013671875,-0.14862218749999997
1680222990197720050,-0.0,-0.0,-0.0,0.139046015625,10.179470703124998,-0.18654382812499998
1680222990238203048,0.0,-0.0,0.0,0.19152343749999998,10.17449109375,-0.12946984374999998
1680222990262376070,-0.0,-0.0,-0.0,0.16739148437499998,10.102861328125,-0.1149140625
1680222990317820072,-0.0,-0.0,-0.0,0.201099609375,10.17449109375,-0.08120593749999999
1680222990369474887,-0.0,-0.0,-0.0,0.13406640625,10.112437499999999,-0.08618554687499999
1680222990436650037,0.0,0.0,-0.0,0.19152343749999998,10.078729375,-0.047880859374999994
1680222990475672960,0.0,0.0,-0.0,0.10074132812499999,10.145762578125,-0.14862218749999997
1680222990493818998,0.0,-0.0,-0.0,0.11989367187499998,10.05498046875,-0.311417109375
1680222990534492969,0.0,-0.0,-0.0,0.08618554687499999,10.231948124999999,0.047880859374999994
1680222990575634002,0.0,0.0,-0.0,0.16739148437499998,10.030848515625,-0.023748906249999997
1680222990594633102,-0.0,-0.0,-0.0,0.090782109375,10.09788171875,-0.13406640625
1680222990635447978,-0.0,-0.0,-0.0,0.16739148437499998,10.231948124999999,-0.14364257812499998
1680222990673027992,0.0,0.0,-0.0,0.139046015625,10.179470703124998,0.0
1680222990696012973,-0.0,-0.0,-0.0,0.16739148437499998,10.141166015624998,-0.067033203125
1680222990735193967,-0.0,-0.0,0.0,0.090782109375,10.09328515625,-0.14862218749999997
1680222990775507926,-0.0,-0.0,-0.0,0.0383046875,10.107457890625,-0.11989367187499998
1680222990812267065,-0.0,-0.0,-0.0,0.201099609375,10.078729375,-0.181947265625
1680222990833583116,0.0,-0.0,-0.0,0.10074132812499999,10.083708984374999,-0.014555781249999998
1680222990872493982,-0.0,-0.0,-0.0,0.0720128125,10.141166015624998,-0.201099609375
1680222990911875009,-0.0,-0.0,-0.0,0.12946984374999998,10.064556640625,-0.09576171874999999
1680222990934402942,0.0,-0.0,-0.0,0.08618554687499999,10.179470703124998,-0.047880859374999994
1680222990975642919,0.0,0.0,-0.0,0.11989367187499998,10.164914921874999,-0.1149140625
1680222991018289089,-0.0,-0.0,-0.0,0.1578153125,10.1170340625,-0.090782109375
1680222991054513931,-0.0,-0.0,-0.0,0.16739148437499998,10.13158984375,-0.076609375
1680222991074714899,-0.0,-0.0,-0.0,0.12946984374999998,10.122013671875,-0.14862218749999997
1680222991113791942,-0.0,-0.0,-0.0,0.076609375,10.102861328125,-0.15321875
1680222991156455993,-0.0,-0.0,-0.0,0.11989367187499998,10.05498046875,-0.1149140625
1680222991176788091,-0.0,-0.0,-0.0,0.0720128125,10.107457890625,-0.14862218749999997
1680222991216243982,0.0,-0.0,-0.0,0.18654382812499998,10.074132812499998,-0.1149140625
1680222991264406919,0.0,-0.0,-0.0,0.11989367187499998,10.184067265625,-0.17237109374999998
1680222991285495042,0.0,0.0,-0.0,0.13406640625,10.074132812499998,-0.076609375
1680222991320563077,0.0,-0.0,-0.0,0.08618554687499999,10.112437499999999,-0.09576171874999999
1680222991366565942,0.0,-0.0,-0.0,0.11031749999999999,10.102861328125,-0.14364257812499998
1680222991453056097,-0.0,-0.0,0.0,0.139046015625,10.155338749999999,-0.11989367187499998
1680222991493057012,-0.0,-0.0,-0.0,0.17696765625,10.145762578125,-0.023748906249999997
1680222991515733003,-0.0,-0.0,-0.0,0.19152343749999998,10.078729375,-0.162794921875
1680222991552719116,-0.0,-0.0,-0.0,0.17696765625,10.088305546874999,-0.05286046874999999
1680222991593421936,-0.0,-0.0,-0.0,0.14862218749999997,10.09788171875,-0.06243664062499999
1680222991613965034,0.0,-0.0,0.0,0.009576171875,10.112437499999999,-0.1578153125
1680222991656172037,-0.0,-0.0,0.0,0.139046015625,10.107457890625,-0.18654382812499998
1680222991695245027,0.0,-0.0,-0.0,0.09576171874999999,10.09788171875,-0.15321875
1680222991734464883,-0.0,-0.0,-0.0,0.18654382812499998,10.09788171875,-0.18654382812499998
1680222991755328893,0.0,-0.0,-0.0,0.181947265625,10.13618640625,-0.258556640625
1680222991797132015,0.0,-0.0,-0.0,0.13406640625,10.045404296874999,-0.10074132812499999
1680222991835102081,-0.0,-0.0,-0.0,0.22025195312499998,10.16989453125,-0.124490234375
1680222991854609012,-0.0,-0.0,-0.0,0.14862218749999997,10.083708984374999,-0.23480773437499997
1680222991892132997,0.0,-0.0,-0.0,0.090782109375,10.122013671875,-0.0720128125
1680222991933763027,0.0,-0.0,-0.0,0.16739148437499998,10.13618640625,0.05745703125
1680222991953953027,-0.0,-0.0,-0.0,0.21067578124999997,10.083708984374999,-0.21067578124999997
1680222991993808031,0.0,-0.0,-0.0,0.139046015625,10.09788171875,-0.12946984374999998
1680222992034436941,-0.0,-0.0,-0.0,0.10533789062499999,10.141166015624998,-0.124490234375
1680222992072588920,-0.0,-0.0,-0.0,0.23940429687499998,10.141166015624998,-0.19152343749999998
1680222992094280958,-0.0,-0.0,0.0,0.1149140625,10.1170340625,-0.19650304687499998
1680222992133765935,-0.0,-0.0,-0.0,0.1578153125,10.13158984375,-0.0720128125
1680222992174969911,0.0,0.0,-0.0,0.18654382812499998,10.045404296874999,-0.15321875
1680222992193433046,0.0,-0.0,-0.0,0.13406640625,10.126610234374999,0.076609375
1680222992235630035,-0.0,-0.0,-0.0,0.16739148437499998,10.102861328125,-0.076609375
1680222992264453887,-0.0,-0.0,-0.0,0.19650304687499998,10.107457890625,-0.076609375
